rt,trial_type,trial_index,trial_number,time_elapsed,random_id,participant_id,response,stimulus,category,correct_response,naive_theory,concept,is_consistent,response_tf,correct,question_order,file_name,grade,gender,age,major,experiment_topic,technical_difficulties,participant_is_group_member
4506,html-keyboard-response,4,1,22567,p1f870lr3ad,frog,m,"<div style=""font-size:30pt;"">1/3 plus 1/3 is 1/3.</div>",Fractions,F,F,Addition,TRUE,F,TRUE,NA,/Users/martincz/GitHub/COGS119/group_wi26_naive_theories/analysis/../data/raw_data/p1f870lr3ad_1772139911965.csv,4th Year,Female,22,Cognitive Science,Testing people's knowledge ,Nope,FALSE
4198,html-keyboard-response,5,2,27268,p1f870lr3ad,frog,t,"<div style=""font-size:30pt;"">Press T if you are paying attention. Do not press z or m.</div>",Fractions,T3,T3,AttentionCheck,TRUE,T3,TRUE,NA,/Users/martincz/GitHub/COGS119/group_wi26_naive_theories/analysis/../data/raw_data/p1f870lr3ad_1772139911965.csv,4th Year,Female,22,Cognitive Science,Testing people's knowledge ,Nope,FALSE
6131,html-keyboard-response,6,3,33901,p1f870lr3ad,frog,m,"<div style=""font-size:30pt;"">There are numbers between 1/10 and 10/100.</div>",Fractions,F,T,Infinite density,FALSE,F,TRUE,NA,/Users/martincz/GitHub/COGS119/group_wi26_naive_theories/analysis/../data/raw_data/p1f870lr3ad_1772139911965.csv,4th Year,Female,22,Cognitive Science,Testing people's knowledge ,Nope,FALSE
2948,html-keyboard-response,7,4,37352,p1f870lr3ad,frog,z,"<div style=""font-size:30pt;"">1/3 plus 1/3 is 2/3.</div>",Fractions,T,T,Addition,TRUE,T,TRUE,NA,/Users/martincz/GitHub/COGS119/group_wi26_naive_theories/analysis/../data/raw_data/p1f870lr3ad_1772139911965.csv,4th Year,Female,22,Cognitive Science,Testing people's knowledge ,Nope,FALSE
3507,html-keyboard-response,8,5,41361,p1f870lr3ad,frog,m,"<div style=""font-size:30pt;"">All fractions are expressible as integers.</div>",Fractions,F,F,Conversion,TRUE,F,TRUE,NA,/Users/martincz/GitHub/COGS119/group_wi26_naive_theories/analysis/../data/raw_data/p1f870lr3ad_1772139911965.csv,4th Year,Female,22,Cognitive Science,Testing people's knowledge ,Nope,FALSE
4019,html-keyboard-response,9,6,45884,p1f870lr3ad,frog,m,"<div style=""font-size:30pt;"">2/3 plus 2/4 is 2/7.</div>",Fractions,F,T,Addition,FALSE,F,TRUE,NA,/Users/martincz/GitHub/COGS119/group_wi26_naive_theories/analysis/../data/raw_data/p1f870lr3ad_1772139911965.csv,4th Year,Female,22,Cognitive Science,Testing people's knowledge ,Nope,FALSE
2818,html-keyboard-response,10,7,49205,p1f870lr3ad,frog,m,"<div style=""font-size:30pt;"">1/17 is greater than 16/17.</div>",Fractions,F,F,Ordering,TRUE,F,TRUE,NA,/Users/martincz/GitHub/COGS119/group_wi26_naive_theories/analysis/../data/raw_data/p1f870lr3ad_1772139911965.csv,4th Year,Female,22,Cognitive Science,Testing people's knowledge ,Nope,FALSE
4758,html-keyboard-response,11,8,54465,p1f870lr3ad,frog,z,"<div style=""font-size:30pt;"">4 divided by 2/1 is 2.</div>",Fractions,T,T,Division,TRUE,T,TRUE,NA,/Users/martincz/GitHub/COGS119/group_wi26_naive_theories/analysis/../data/raw_data/p1f870lr3ad_1772139911965.csv,4th Year,Female,22,Cognitive Science,Testing people's knowledge ,Nope,FALSE
6270,html-keyboard-response,12,9,61238,p1f870lr3ad,frog,m,"<div style=""font-size:30pt;"">8 divided by 1/2 is 4.</div>",Fractions,F,T,Division,FALSE,F,TRUE,NA,/Users/martincz/GitHub/COGS119/group_wi26_naive_theories/analysis/../data/raw_data/p1f870lr3ad_1772139911965.csv,4th Year,Female,22,Cognitive Science,Testing people's knowledge ,Nope,FALSE
11820,html-keyboard-response,13,10,73560,p1f870lr3ad,frog,m,"<div style=""font-size:30pt;"">8 divided by 2/1 is 3.</div>",Fractions,F,F,Division,TRUE,F,TRUE,NA,/Users/martincz/GitHub/COGS119/group_wi26_naive_theories/analysis/../data/raw_data/p1f870lr3ad_1772139911965.csv,4th Year,Female,22,Cognitive Science,Testing people's knowledge ,Nope,FALSE
4138,html-keyboard-response,14,11,78200,p1f870lr3ad,frog,z,"<div style=""font-size:30pt;"">1/10 plus 1/10 is 1/5.</div>",Fractions,T,F,Addition,FALSE,T,TRUE,NA,/Users/martincz/GitHub/COGS119/group_wi26_naive_theories/analysis/../data/raw_data/p1f870lr3ad_1772139911965.csv,4th Year,Female,22,Cognitive Science,Testing people's knowledge ,Nope,FALSE
4538,html-keyboard-response,15,12,83240,p1f870lr3ad,frog,z,"<div style=""font-size:30pt;"">All integers are expressible as fractions.</div>",Fractions,T,F,Conversion,FALSE,T,TRUE,NA,/Users/martincz/GitHub/COGS119/group_wi26_naive_theories/analysis/../data/raw_data/p1f870lr3ad_1772139911965.csv,4th Year,Female,22,Cognitive Science,Testing people's knowledge ,Nope,FALSE
3376,html-keyboard-response,16,13,87118,p1f870lr3ad,frog,m,"<div style=""font-size:30pt;"">There are numbers between 10 and 10.</div>",Fractions,F,F,Infinite density,TRUE,F,TRUE,NA,/Users/martincz/GitHub/COGS119/group_wi26_naive_theories/analysis/../data/raw_data/p1f870lr3ad_1772139911965.csv,4th Year,Female,22,Cognitive Science,Testing people's knowledge ,Nope,FALSE
1531,html-keyboard-response,17,14,89151,p1f870lr3ad,frog,z,"<div style=""font-size:30pt;"">There are numbers between 1 and 3.</div>",Fractions,T,T,Infinite density,TRUE,T,TRUE,NA,/Users/martincz/GitHub/COGS119/group_wi26_naive_theories/analysis/../data/raw_data/p1f870lr3ad_1772139911965.csv,4th Year,Female,22,Cognitive Science,Testing people's knowledge ,Nope,FALSE
8803,html-keyboard-response,18,15,98456,p1f870lr3ad,frog,z,"<div style=""font-size:30pt;"">All decimals are expressible as fractions.</div>",Fractions,T,T,Conversion,TRUE,T,TRUE,NA,/Users/martincz/GitHub/COGS119/group_wi26_naive_theories/analysis/../data/raw_data/p1f870lr3ad_1772139911965.csv,4th Year,Female,22,Cognitive Science,Testing people's knowledge ,Nope,FALSE
3506,html-keyboard-response,19,16,102465,p1f870lr3ad,frog,z,"<div style=""font-size:30pt;"">12/13 is greater than 1/13.</div>",Fractions,T,T,Ordering,TRUE,T,TRUE,NA,/Users/martincz/GitHub/COGS119/group_wi26_naive_theories/analysis/../data/raw_data/p1f870lr3ad_1772139911965.csv,4th Year,Female,22,Cognitive Science,Testing people's knowledge ,Nope,FALSE
3718,html-keyboard-response,20,17,106685,p1f870lr3ad,frog,z,"<div style=""font-size:30pt;"">4 divided by 1/2 is 8.</div>",Fractions,T,F,Division,FALSE,T,TRUE,NA,/Users/martincz/GitHub/COGS119/group_wi26_naive_theories/analysis/../data/raw_data/p1f870lr3ad_1772139911965.csv,4th Year,Female,22,Cognitive Science,Testing people's knowledge ,Nope,FALSE
3633,html-keyboard-response,21,18,110820,p1f870lr3ad,frog,z,"<div style=""font-size:30pt;"">All fractions are expressible as decimals.</div>",Fractions,F,T,Conversion,FALSE,T,FALSE,NA,/Users/martincz/GitHub/COGS119/group_wi26_naive_theories/analysis/../data/raw_data/p1f870lr3ad_1772139911965.csv,4th Year,Female,22,Cognitive Science,Testing people's knowledge ,Nope,FALSE
2494,html-keyboard-response,22,19,113817,p1f870lr3ad,frog,m,"<div style=""font-size:30pt;"">1/17 is greater than 1/9.</div>",Fractions,F,T,Ordering,FALSE,F,TRUE,NA,/Users/martincz/GitHub/COGS119/group_wi26_naive_theories/analysis/../data/raw_data/p1f870lr3ad_1772139911965.csv,4th Year,Female,22,Cognitive Science,Testing people's knowledge ,Nope,FALSE
5305,html-keyboard-response,23,20,119625,p1f870lr3ad,frog,z,"<div style=""font-size:30pt;"">There are numbers between 1/3 and 1/2.</div>",Fractions,T,F,Infinite density,FALSE,T,TRUE,NA,/Users/martincz/GitHub/COGS119/group_wi26_naive_theories/analysis/../data/raw_data/p1f870lr3ad_1772139911965.csv,4th Year,Female,22,Cognitive Science,Testing people's knowledge ,Nope,FALSE
3825,html-keyboard-response,24,21,123952,p1f870lr3ad,frog,z,"<div style=""font-size:30pt;"">1/13 is greater than 1/30.</div>",Fractions,T,F,Ordering,FALSE,T,TRUE,NA,/Users/martincz/GitHub/COGS119/group_wi26_naive_theories/analysis/../data/raw_data/p1f870lr3ad_1772139911965.csv,4th Year,Female,22,Cognitive Science,Testing people's knowledge ,Nope,FALSE
2786,html-keyboard-response,26,22,129008,p1f870lr3ad,frog,z,"<div style=""font-size:30pt;"">A grain of sand can be cut in half.</div>",Matter,T,F,Divisibility,FALSE,T,TRUE,NA,/Users/martincz/GitHub/COGS119/group_wi26_naive_theories/analysis/../data/raw_data/p1f870lr3ad_1772139911965.csv,4th Year,Female,22,Cognitive Science,Testing people's knowledge ,Nope,FALSE
2473,html-keyboard-response,27,23,131982,p1f870lr3ad,frog,z,"<div style=""font-size:30pt;"">Atoms are the constituents of matter.</div>",Matter,T,T,Atom,TRUE,T,TRUE,NA,/Users/martincz/GitHub/COGS119/group_wi26_naive_theories/analysis/../data/raw_data/p1f870lr3ad_1772139911965.csv,4th Year,Female,22,Cognitive Science,Testing people's knowledge ,Nope,FALSE
5756,html-keyboard-response,28,24,138241,p1f870lr3ad,frog,m,"<div style=""font-size:30pt;"">A pound of steel weighs more than a ton of steel.</div>",Matter,F,F,Weight,TRUE,F,TRUE,NA,/Users/martincz/GitHub/COGS119/group_wi26_naive_theories/analysis/../data/raw_data/p1f870lr3ad_1772139911965.csv,4th Year,Female,22,Cognitive Science,Testing people's knowledge ,Nope,FALSE
4129,html-keyboard-response,29,25,142872,p1f870lr3ad,frog,z,"<div style=""font-size:30pt;"">A liter of water weighs more than a liter of air.</div>",Matter,T,T,Weight,TRUE,T,TRUE,NA,/Users/martincz/GitHub/COGS119/group_wi26_naive_theories/analysis/../data/raw_data/p1f870lr3ad_1772139911965.csv,4th Year,Female,22,Cognitive Science,Testing people's knowledge ,Nope,FALSE
5967,html-keyboard-response,30,26,149342,p1f870lr3ad,frog,z,"<div style=""font-size:30pt;"">Air is composed of matter.</div>",Matter,T,F,Mass,FALSE,T,TRUE,NA,/Users/martincz/GitHub/COGS119/group_wi26_naive_theories/analysis/../data/raw_data/p1f870lr3ad_1772139911965.csv,4th Year,Female,22,Cognitive Science,Testing people's knowledge ,Nope,FALSE
1756,html-keyboard-response,31,27,151599,p1f870lr3ad,frog,z,"<div style=""font-size:30pt;"">Fire is composed of matter.</div>",Matter,F,T,Mass,FALSE,T,FALSE,NA,/Users/martincz/GitHub/COGS119/group_wi26_naive_theories/analysis/../data/raw_data/p1f870lr3ad_1772139911965.csv,4th Year,Female,22,Cognitive Science,Testing people's knowledge ,Nope,FALSE
2798,html-keyboard-response,32,28,154900,p1f870lr3ad,frog,m,"<div style=""font-size:30pt;"">A pound of steel weighs more than a pound of feathers.</div>",Matter,F,T,Weight,FALSE,F,TRUE,NA,/Users/martincz/GitHub/COGS119/group_wi26_naive_theories/analysis/../data/raw_data/p1f870lr3ad_1772139911965.csv,4th Year,Female,22,Cognitive Science,Testing people's knowledge ,Nope,FALSE
4198,html-keyboard-response,33,29,159600,p1f870lr3ad,frog,m,"<div style=""font-size:30pt;"">An idea can be cut in half.</div>",Matter,F,F,Divisibility,TRUE,F,TRUE,NA,/Users/martincz/GitHub/COGS119/group_wi26_naive_theories/analysis/../data/raw_data/p1f870lr3ad_1772139911965.csv,4th Year,Female,22,Cognitive Science,Testing people's knowledge ,Nope,FALSE
5604,html-keyboard-response,34,30,165706,p1f870lr3ad,frog,z,"<div style=""font-size:30pt;"">Foam is denser than brick.</div>",Matter,F,F,Density,TRUE,T,FALSE,NA,/Users/martincz/GitHub/COGS119/group_wi26_naive_theories/analysis/../data/raw_data/p1f870lr3ad_1772139911965.csv,4th Year,Female,22,Cognitive Science,Testing people's knowledge ,Nope,FALSE
2910,html-keyboard-response,35,31,169118,p1f870lr3ad,frog,z,"<div style=""font-size:30pt;"">Ice is denser than water.</div>",Matter,F,T,Density,FALSE,T,FALSE,NA,/Users/martincz/GitHub/COGS119/group_wi26_naive_theories/analysis/../data/raw_data/p1f870lr3ad_1772139911965.csv,4th Year,Female,22,Cognitive Science,Testing people's knowledge ,Nope,FALSE
4348,html-keyboard-response,36,32,173969,p1f870lr3ad,frog,m,"<div style=""font-size:30pt;"">A cold penny is denser than a hot penny.</div>",Matter,T,F,Density,FALSE,F,FALSE,NA,/Users/martincz/GitHub/COGS119/group_wi26_naive_theories/analysis/../data/raw_data/p1f870lr3ad_1772139911965.csv,4th Year,Female,22,Cognitive Science,Testing people's knowledge ,Nope,FALSE
2816,html-keyboard-response,37,33,177287,p1f870lr3ad,frog,z,"<div style=""font-size:30pt;"">Atoms are visible to the naked eye.</div>",Matter,F,F,Atom,TRUE,T,FALSE,NA,/Users/martincz/GitHub/COGS119/group_wi26_naive_theories/analysis/../data/raw_data/p1f870lr3ad_1772139911965.csv,4th Year,Female,22,Cognitive Science,Testing people's knowledge ,Nope,FALSE
1823,html-keyboard-response,38,34,179612,p1f870lr3ad,frog,m,"<div style=""font-size:30pt;"">Atoms are mostly empty space.</div>",Matter,T,F,Atom,FALSE,F,FALSE,NA,/Users/martincz/GitHub/COGS119/group_wi26_naive_theories/analysis/../data/raw_data/p1f870lr3ad_1772139911965.csv,4th Year,Female,22,Cognitive Science,Testing people's knowledge ,Nope,FALSE
5813,html-keyboard-response,39,35,185927,p1f870lr3ad,frog,z,"<div style=""font-size:30pt;"">Steel is denser than foam.</div>",Matter,T,T,Density,TRUE,T,TRUE,NA,/Users/martincz/GitHub/COGS119/group_wi26_naive_theories/analysis/../data/raw_data/p1f870lr3ad_1772139911965.csv,4th Year,Female,22,Cognitive Science,Testing people's knowledge ,Nope,FALSE
1678,html-keyboard-response,40,36,188108,p1f870lr3ad,frog,z,"<div style=""font-size:30pt;"">Rocks are composed of matter.</div>",Matter,T,T,Mass,TRUE,T,TRUE,NA,/Users/martincz/GitHub/COGS119/group_wi26_naive_theories/analysis/../data/raw_data/p1f870lr3ad_1772139911965.csv,4th Year,Female,22,Cognitive Science,Testing people's knowledge ,Nope,FALSE
2138,html-keyboard-response,41,37,190750,p1f870lr3ad,frog,m,"<div style=""font-size:30pt;"">Atoms are weightless.</div>",Matter,F,T,Atom,FALSE,F,TRUE,NA,/Users/martincz/GitHub/COGS119/group_wi26_naive_theories/analysis/../data/raw_data/p1f870lr3ad_1772139911965.csv,4th Year,Female,22,Cognitive Science,Testing people's knowledge ,Nope,FALSE
3940,html-keyboard-response,42,38,195191,p1f870lr3ad,frog,z,"<div style=""font-size:30pt;"">Numbers are composed of matter.</div>",Matter,F,F,Mass,TRUE,T,FALSE,NA,/Users/martincz/GitHub/COGS119/group_wi26_naive_theories/analysis/../data/raw_data/p1f870lr3ad_1772139911965.csv,4th Year,Female,22,Cognitive Science,Testing people's knowledge ,Nope,FALSE
1959,html-keyboard-response,43,39,197654,p1f870lr3ad,frog,m,"<div style=""font-size:30pt;"">A shadow can be cut in half.</div>",Matter,F,T,Divisibility,FALSE,F,TRUE,NA,/Users/martincz/GitHub/COGS119/group_wi26_naive_theories/analysis/../data/raw_data/p1f870lr3ad_1772139911965.csv,4th Year,Female,22,Cognitive Science,Testing people's knowledge ,Nope,FALSE
1794,html-keyboard-response,44,40,199951,p1f870lr3ad,frog,t,"<div style=""font-size:30pt;"">Press T if you are paying attention. Do not press z or m.</div>",Matter,T3,T3,AttentionCheck,TRUE,T3,TRUE,NA,/Users/martincz/GitHub/COGS119/group_wi26_naive_theories/analysis/../data/raw_data/p1f870lr3ad_1772139911965.csv,4th Year,Female,22,Cognitive Science,Testing people's knowledge ,Nope,FALSE
2075,html-keyboard-response,45,41,202528,p1f870lr3ad,frog,z,"<div style=""font-size:30pt;"">A log can be cut in half.</div>",Matter,T,T,Divisibility,TRUE,T,TRUE,NA,/Users/martincz/GitHub/COGS119/group_wi26_naive_theories/analysis/../data/raw_data/p1f870lr3ad_1772139911965.csv,4th Year,Female,22,Cognitive Science,Testing people's knowledge ,Nope,FALSE
2638,html-keyboard-response,46,42,205668,p1f870lr3ad,frog,m,"<div style=""font-size:30pt;"">A liter of water weighs more than a liter of ice.</div>",Matter,T,F,Weight,FALSE,F,FALSE,NA,/Users/martincz/GitHub/COGS119/group_wi26_naive_theories/analysis/../data/raw_data/p1f870lr3ad_1772139911965.csv,4th Year,Female,22,Cognitive Science,Testing people's knowledge ,Nope,FALSE
13570,html-keyboard-response,48,43,221543,p1f870lr3ad,frog,m,"<div style=""font-size:30pt;"">Red objects absorb blue light.</div>",Waves,T,F,Color,FALSE,F,FALSE,NA,/Users/martincz/GitHub/COGS119/group_wi26_naive_theories/analysis/../data/raw_data/p1f870lr3ad_1772139911965.csv,4th Year,Female,22,Cognitive Science,Testing people's knowledge ,Nope,FALSE
6165,html-keyboard-response,49,44,228211,p1f870lr3ad,frog,z,"<div style=""font-size:30pt;"">Sound travels through metal.</div>",Waves,T,F,Propagation,FALSE,T,TRUE,NA,/Users/martincz/GitHub/COGS119/group_wi26_naive_theories/analysis/../data/raw_data/p1f870lr3ad_1772139911965.csv,4th Year,Female,22,Cognitive Science,Testing people's knowledge ,Nope,FALSE
3349,html-keyboard-response,50,45,232063,p1f870lr3ad,frog,m,"<div style=""font-size:30pt;"">Black objects reflect all colors of light.</div>",Waves,F,T,Light,FALSE,F,TRUE,NA,/Users/martincz/GitHub/COGS119/group_wi26_naive_theories/analysis/../data/raw_data/p1f870lr3ad_1772139911965.csv,4th Year,Female,22,Cognitive Science,Testing people's knowledge ,Nope,FALSE
3431,html-keyboard-response,51,46,235997,p1f870lr3ad,frog,m,"<div style=""font-size:30pt;"">Mirrors reflect sound.</div>",Waves,T,F,Reflection,FALSE,F,FALSE,NA,/Users/martincz/GitHub/COGS119/group_wi26_naive_theories/analysis/../data/raw_data/p1f870lr3ad_1772139911965.csv,4th Year,Female,22,Cognitive Science,Testing people's knowledge ,Nope,FALSE
1702,html-keyboard-response,52,47,238201,p1f870lr3ad,frog,m,"<div style=""font-size:30pt;"">Foam reflects sound.</div>",Waves,F,F,Reflection,TRUE,F,TRUE,NA,/Users/martincz/GitHub/COGS119/group_wi26_naive_theories/analysis/../data/raw_data/p1f870lr3ad_1772139911965.csv,4th Year,Female,22,Cognitive Science,Testing people's knowledge ,Nope,FALSE
1911,html-keyboard-response,53,48,240614,p1f870lr3ad,frog,m,"<div style=""font-size:30pt;"">Sound travels through foam.</div>",Waves,F,F,Propagation,TRUE,F,TRUE,NA,/Users/martincz/GitHub/COGS119/group_wi26_naive_theories/analysis/../data/raw_data/p1f870lr3ad_1772139911965.csv,4th Year,Female,22,Cognitive Science,Testing people's knowledge ,Nope,FALSE
2327,html-keyboard-response,54,49,243442,p1f870lr3ad,frog,z,"<div style=""font-size:30pt;"">Sounds can be loud or quiet.</div>",Waves,T,T,Sound,TRUE,T,TRUE,NA,/Users/martincz/GitHub/COGS119/group_wi26_naive_theories/analysis/../data/raw_data/p1f870lr3ad_1772139911965.csv,4th Year,Female,22,Cognitive Science,Testing people's knowledge ,Nope,FALSE
1598,html-keyboard-response,55,50,245543,p1f870lr3ad,frog,z,"<div style=""font-size:30pt;"">Red objects reflect red light.</div>",Waves,T,T,Color,TRUE,T,TRUE,NA,/Users/martincz/GitHub/COGS119/group_wi26_naive_theories/analysis/../data/raw_data/p1f870lr3ad_1772139911965.csv,4th Year,Female,22,Cognitive Science,Testing people's knowledge ,Nope,FALSE
3590,html-keyboard-response,56,51,249636,p1f870lr3ad,frog,z,"<div style=""font-size:30pt;"">White light contains all colors of light.</div>",Waves,T,F,Light,FALSE,T,TRUE,NA,/Users/martincz/GitHub/COGS119/group_wi26_naive_theories/analysis/../data/raw_data/p1f870lr3ad_1772139911965.csv,4th Year,Female,22,Cognitive Science,Testing people's knowledge ,Nope,FALSE
1448,html-keyboard-response,57,52,251585,p1f870lr3ad,frog,z,"<div style=""font-size:30pt;"">Prisms reflect light.</div>",Waves,F,T,Reflection,FALSE,T,FALSE,NA,/Users/martincz/GitHub/COGS119/group_wi26_naive_theories/analysis/../data/raw_data/p1f870lr3ad_1772139911965.csv,4th Year,Female,22,Cognitive Science,Testing people's knowledge ,Nope,FALSE
1456,html-keyboard-response,58,53,253543,p1f870lr3ad,frog,z,"<div style=""font-size:30pt;"">Sounds can be near or far.</div>",Waves,F,T,Sound,FALSE,T,FALSE,NA,/Users/martincz/GitHub/COGS119/group_wi26_naive_theories/analysis/../data/raw_data/p1f870lr3ad_1772139911965.csv,4th Year,Female,22,Cognitive Science,Testing people's knowledge ,Nope,FALSE
1142,html-keyboard-response,59,54,255188,p1f870lr3ad,frog,z,"<div style=""font-size:30pt;"">Red objects absorb red light.</div>",Waves,F,T,Color,FALSE,T,FALSE,NA,/Users/martincz/GitHub/COGS119/group_wi26_naive_theories/analysis/../data/raw_data/p1f870lr3ad_1772139911965.csv,4th Year,Female,22,Cognitive Science,Testing people's knowledge ,Nope,FALSE
2095,html-keyboard-response,60,55,257785,p1f870lr3ad,frog,z,"<div style=""font-size:30pt;"">Sound travels through air.</div>",Waves,T,T,Propagation,TRUE,T,TRUE,NA,/Users/martincz/GitHub/COGS119/group_wi26_naive_theories/analysis/../data/raw_data/p1f870lr3ad_1772139911965.csv,4th Year,Female,22,Cognitive Science,Testing people's knowledge ,Nope,FALSE
1446,html-keyboard-response,61,56,259733,p1f870lr3ad,frog,z,"<div style=""font-size:30pt;"">Mirrors reflect light.</div>",Waves,T,T,Reflection,TRUE,T,TRUE,NA,/Users/martincz/GitHub/COGS119/group_wi26_naive_theories/analysis/../data/raw_data/p1f870lr3ad_1772139911965.csv,4th Year,Female,22,Cognitive Science,Testing people's knowledge ,Nope,FALSE
1473,html-keyboard-response,62,57,261709,p1f870lr3ad,frog,m,"<div style=""font-size:30pt;"">Red objects reflect blue light.</div>",Waves,F,F,Color,TRUE,F,TRUE,NA,/Users/martincz/GitHub/COGS119/group_wi26_naive_theories/analysis/../data/raw_data/p1f870lr3ad_1772139911965.csv,4th Year,Female,22,Cognitive Science,Testing people's knowledge ,Nope,FALSE
4560,html-keyboard-response,63,58,266772,p1f870lr3ad,frog,m,"<div style=""font-size:30pt;"">Sound travels through a vacuum.</div>",Waves,F,T,Propagation,FALSE,F,TRUE,NA,/Users/martincz/GitHub/COGS119/group_wi26_naive_theories/analysis/../data/raw_data/p1f870lr3ad_1772139911965.csv,4th Year,Female,22,Cognitive Science,Testing people's knowledge ,Nope,FALSE
4044,html-keyboard-response,64,59,271318,p1f870lr3ad,frog,z,"<div style=""font-size:30pt;"">Rainbows contain all colors of light.</div>",Waves,T,T,Light,TRUE,T,TRUE,NA,/Users/martincz/GitHub/COGS119/group_wi26_naive_theories/analysis/../data/raw_data/p1f870lr3ad_1772139911965.csv,4th Year,Female,22,Cognitive Science,Testing people's knowledge ,Nope,FALSE
1652,html-keyboard-response,65,60,273473,p1f870lr3ad,frog,m,"<div style=""font-size:30pt;"">Sounds can be dead or alive.</div>",Waves,F,F,Sound,TRUE,F,TRUE,NA,/Users/martincz/GitHub/COGS119/group_wi26_naive_theories/analysis/../data/raw_data/p1f870lr3ad_1772139911965.csv,4th Year,Female,22,Cognitive Science,Testing people's knowledge ,Nope,FALSE
1962,html-keyboard-response,66,61,275938,p1f870lr3ad,frog,m,"<div style=""font-size:30pt;"">Shadows contain all colors of light.</div>",Waves,F,F,Light,TRUE,F,TRUE,NA,/Users/martincz/GitHub/COGS119/group_wi26_naive_theories/analysis/../data/raw_data/p1f870lr3ad_1772139911965.csv,4th Year,Female,22,Cognitive Science,Testing people's knowledge ,Nope,FALSE
1904,html-keyboard-response,67,62,278344,p1f870lr3ad,frog,z,"<div style=""font-size:30pt;"">Sounds can be direct or reflected.</div>",Waves,T,F,Sound,FALSE,T,TRUE,NA,/Users/martincz/GitHub/COGS119/group_wi26_naive_theories/analysis/../data/raw_data/p1f870lr3ad_1772139911965.csv,4th Year,Female,22,Cognitive Science,Testing people's knowledge ,Nope,FALSE
1651,html-keyboard-response,68,63,280498,p1f870lr3ad,frog,t,"<div style=""font-size:30pt;"">Press T if you are paying attention. Do not press z or m.</div>",Waves,T3,T3,AttentionCheck,TRUE,T3,TRUE,NA,/Users/martincz/GitHub/COGS119/group_wi26_naive_theories/analysis/../data/raw_data/p1f870lr3ad_1772139911965.csv,4th Year,Female,22,Cognitive Science,Testing people's knowledge ,Nope,FALSE
3442,html-keyboard-response,70,64,286062,p1f870lr3ad,frog,m,"<div style=""font-size:30pt;"">The sun revolves around the moon.</div>",Astronomy,F,F,Solar system,TRUE,F,TRUE,NA,/Users/martincz/GitHub/COGS119/group_wi26_naive_theories/analysis/../data/raw_data/p1f870lr3ad_1772139911965.csv,4th Year,Female,22,Cognitive Science,Testing people's knowledge ,Nope,FALSE
2121,html-keyboard-response,71,65,288686,p1f870lr3ad,frog,z,"<div style=""font-size:30pt;"">The earth revolves around the sun.</div>",Astronomy,T,F,Solar system,FALSE,T,TRUE,NA,/Users/martincz/GitHub/COGS119/group_wi26_naive_theories/analysis/../data/raw_data/p1f870lr3ad_1772139911965.csv,4th Year,Female,22,Cognitive Science,Testing people's knowledge ,Nope,FALSE
3868,html-keyboard-response,72,66,293056,p1f870lr3ad,frog,z,"<div style=""font-size:30pt;"">The earth's rotation causes the seasons.</div>",Astronomy,F,F,Season,TRUE,T,FALSE,NA,/Users/martincz/GitHub/COGS119/group_wi26_naive_theories/analysis/../data/raw_data/p1f870lr3ad_1772139911965.csv,4th Year,Female,22,Cognitive Science,Testing people's knowledge ,Nope,FALSE
11079,html-keyboard-response,73,67,304637,p1f870lr3ad,frog,z,"<div style=""font-size:30pt;"">A change in overall sunlight causes the seasons.</div>",Astronomy,T,T,Season,TRUE,T,TRUE,NA,/Users/martincz/GitHub/COGS119/group_wi26_naive_theories/analysis/../data/raw_data/p1f870lr3ad_1772139911965.csv,4th Year,Female,22,Cognitive Science,Testing people's knowledge ,Nope,FALSE
17055,html-keyboard-response,74,68,322194,p1f870lr3ad,frog,m,"<div style=""font-size:30pt;"">Phases of the moon are caused by the earth's shadow.</div>",Astronomy,F,T,Lunar phase,FALSE,F,TRUE,NA,/Users/martincz/GitHub/COGS119/group_wi26_naive_theories/analysis/../data/raw_data/p1f870lr3ad_1772139911965.csv,4th Year,Female,22,Cognitive Science,Testing people's knowledge ,Nope,FALSE
1894,html-keyboard-response,75,69,324591,p1f870lr3ad,frog,z,"<div style=""font-size:30pt;"">The sun produces light.</div>",Astronomy,T,T,Star,TRUE,T,TRUE,NA,/Users/martincz/GitHub/COGS119/group_wi26_naive_theories/analysis/../data/raw_data/p1f870lr3ad_1772139911965.csv,4th Year,Female,22,Cognitive Science,Testing people's knowledge ,Nope,FALSE
2383,html-keyboard-response,76,70,327476,p1f870lr3ad,frog,z,"<div style=""font-size:30pt;"">The earth's tilt causes the seasons.</div>",Astronomy,T,F,Season,FALSE,T,TRUE,NA,/Users/martincz/GitHub/COGS119/group_wi26_naive_theories/analysis/../data/raw_data/p1f870lr3ad_1772139911965.csv,4th Year,Female,22,Cognitive Science,Testing people's knowledge ,Nope,FALSE
8997,html-keyboard-response,77,71,336976,p1f870lr3ad,frog,m,"<div style=""font-size:30pt;"">Planets are more massive than stars.</div>",Astronomy,F,T,Planet,FALSE,F,TRUE,NA,/Users/martincz/GitHub/COGS119/group_wi26_naive_theories/analysis/../data/raw_data/p1f870lr3ad_1772139911965.csv,4th Year,Female,22,Cognitive Science,Testing people's knowledge ,Nope,FALSE
2983,html-keyboard-response,78,72,340461,p1f870lr3ad,frog,z,"<div style=""font-size:30pt;"">Phases of the moon are caused by changes in illumination.</div>",Astronomy,T,T,Lunar phase,TRUE,T,TRUE,NA,/Users/martincz/GitHub/COGS119/group_wi26_naive_theories/analysis/../data/raw_data/p1f870lr3ad_1772139911965.csv,4th Year,Female,22,Cognitive Science,Testing people's knowledge ,Nope,FALSE
1698,html-keyboard-response,79,73,342661,p1f870lr3ad,frog,z,"<div style=""font-size:30pt;"">The moon revolves around the earth.</div>",Astronomy,T,T,Solar system,TRUE,T,TRUE,NA,/Users/martincz/GitHub/COGS119/group_wi26_naive_theories/analysis/../data/raw_data/p1f870lr3ad_1772139911965.csv,4th Year,Female,22,Cognitive Science,Testing people's knowledge ,Nope,FALSE
5913,html-keyboard-response,80,74,349077,p1f870lr3ad,frog,m,"<div style=""font-size:30pt;"">Stars are more massive than planets.</div>",Astronomy,T,F,Planet,FALSE,F,FALSE,NA,/Users/martincz/GitHub/COGS119/group_wi26_naive_theories/analysis/../data/raw_data/p1f870lr3ad_1772139911965.csv,4th Year,Female,22,Cognitive Science,Testing people's knowledge ,Nope,FALSE
4298,html-keyboard-response,81,75,353877,p1f870lr3ad,frog,m,"<div style=""font-size:30pt;"">Asteroids are more massive than planets.</div>",Astronomy,F,F,Planet,TRUE,F,TRUE,NA,/Users/martincz/GitHub/COGS119/group_wi26_naive_theories/analysis/../data/raw_data/p1f870lr3ad_1772139911965.csv,4th Year,Female,22,Cognitive Science,Testing people's knowledge ,Nope,FALSE
3211,html-keyboard-response,82,76,357590,p1f870lr3ad,frog,m,"<div style=""font-size:30pt;"">The sun produces gravity.</div>",Astronomy,T,F,Star,FALSE,F,FALSE,NA,/Users/martincz/GitHub/COGS119/group_wi26_naive_theories/analysis/../data/raw_data/p1f870lr3ad_1772139911965.csv,4th Year,Female,22,Cognitive Science,Testing people's knowledge ,Nope,FALSE
7072,html-keyboard-response,83,77,365165,p1f870lr3ad,frog,m,"<div style=""font-size:30pt;"">The earth's distance from the sun causes the seasons.</div>",Astronomy,F,T,Season,FALSE,F,TRUE,NA,/Users/martincz/GitHub/COGS119/group_wi26_naive_theories/analysis/../data/raw_data/p1f870lr3ad_1772139911965.csv,4th Year,Female,22,Cognitive Science,Testing people's knowledge ,Nope,FALSE
1639,html-keyboard-response,84,78,367307,p1f870lr3ad,frog,t,"<div style=""font-size:30pt;"">Press T if you are paying attention. Do not press z or m.</div>",Astronomy,T3,T3,AttentionCheck,TRUE,T3,TRUE,NA,/Users/martincz/GitHub/COGS119/group_wi26_naive_theories/analysis/../data/raw_data/p1f870lr3ad_1772139911965.csv,4th Year,Female,22,Cognitive Science,Testing people's knowledge ,Nope,FALSE
4667,html-keyboard-response,85,79,372476,p1f870lr3ad,frog,z,"<div style=""font-size:30pt;"">Planets are more massive than moons.</div>",Astronomy,T,T,Planet,TRUE,T,TRUE,NA,/Users/martincz/GitHub/COGS119/group_wi26_naive_theories/analysis/../data/raw_data/p1f870lr3ad_1772139911965.csv,4th Year,Female,22,Cognitive Science,Testing people's knowledge ,Nope,FALSE
4726,html-keyboard-response,86,80,377704,p1f870lr3ad,frog,z,"<div style=""font-size:30pt;"">Phases of the moon are caused by the moon's orbit.</div>",Astronomy,T,F,Lunar phase,FALSE,T,TRUE,NA,/Users/martincz/GitHub/COGS119/group_wi26_naive_theories/analysis/../data/raw_data/p1f870lr3ad_1772139911965.csv,4th Year,Female,22,Cognitive Science,Testing people's knowledge ,Nope,FALSE
3405,html-keyboard-response,87,81,381611,p1f870lr3ad,frog,z,"<div style=""font-size:30pt;"">The sun produces sound.</div>",Astronomy,F,F,Star,TRUE,T,FALSE,NA,/Users/martincz/GitHub/COGS119/group_wi26_naive_theories/analysis/../data/raw_data/p1f870lr3ad_1772139911965.csv,4th Year,Female,22,Cognitive Science,Testing people's knowledge ,Nope,FALSE
2026,html-keyboard-response,88,82,384139,p1f870lr3ad,frog,m,"<div style=""font-size:30pt;"">The moon produces light.</div>",Astronomy,F,T,Star,FALSE,F,TRUE,NA,/Users/martincz/GitHub/COGS119/group_wi26_naive_theories/analysis/../data/raw_data/p1f870lr3ad_1772139911965.csv,4th Year,Female,22,Cognitive Science,Testing people's knowledge ,Nope,FALSE
1692,html-keyboard-response,89,83,386334,p1f870lr3ad,frog,m,"<div style=""font-size:30pt;"">Phases of the moon are caused by clouds.</div>",Astronomy,F,F,Lunar phase,TRUE,F,TRUE,NA,/Users/martincz/GitHub/COGS119/group_wi26_naive_theories/analysis/../data/raw_data/p1f870lr3ad_1772139911965.csv,4th Year,Female,22,Cognitive Science,Testing people's knowledge ,Nope,FALSE
1983,html-keyboard-response,90,84,388818,p1f870lr3ad,frog,m,"<div style=""font-size:30pt;"">The sun revolves around the earth.</div>",Astronomy,F,T,Solar system,FALSE,F,TRUE,NA,/Users/martincz/GitHub/COGS119/group_wi26_naive_theories/analysis/../data/raw_data/p1f870lr3ad_1772139911965.csv,4th Year,Female,22,Cognitive Science,Testing people's knowledge ,Nope,FALSE
4821,html-keyboard-response,92,85,395616,p1f870lr3ad,frog,m,"<div style=""font-size:30pt;"">Genes that code for eye color can be found in tears.</div>",Genetics,F,T,Expression,FALSE,F,TRUE,NA,/Users/martincz/GitHub/COGS119/group_wi26_naive_theories/analysis/../data/raw_data/p1f870lr3ad_1772139911965.csv,4th Year,Female,22,Cognitive Science,Testing people's knowledge ,Nope,FALSE
2724,html-keyboard-response,93,86,398842,p1f870lr3ad,frog,z,"<div style=""font-size:30pt;"">Men have more chromosomes than women.</div>",Genetics,F,F,Chromosome,TRUE,T,FALSE,NA,/Users/martincz/GitHub/COGS119/group_wi26_naive_theories/analysis/../data/raw_data/p1f870lr3ad_1772139911965.csv,4th Year,Female,22,Cognitive Science,Testing people's knowledge ,Nope,FALSE
4826,html-keyboard-response,94,87,404171,p1f870lr3ad,frog,m,"<div style=""font-size:30pt;"">Genes that code for eye color can be found in the liver.</div>",Genetics,T,F,Expression,FALSE,F,FALSE,NA,/Users/martincz/GitHub/COGS119/group_wi26_naive_theories/analysis/../data/raw_data/p1f870lr3ad_1772139911965.csv,4th Year,Female,22,Cognitive Science,Testing people's knowledge ,Nope,FALSE
1816,html-keyboard-response,95,88,406489,p1f870lr3ad,frog,m,"<div style=""font-size:30pt;"">Genes that code for eye color can be found in hair.</div>",Genetics,F,F,Expression,TRUE,F,TRUE,NA,/Users/martincz/GitHub/COGS119/group_wi26_naive_theories/analysis/../data/raw_data/p1f870lr3ad_1772139911965.csv,4th Year,Female,22,Cognitive Science,Testing people's knowledge ,Nope,FALSE
2695,html-keyboard-response,96,89,409685,p1f870lr3ad,frog,z,"<div style=""font-size:30pt;"">Hair color is heritable.</div>",Genetics,T,T,Heritability,TRUE,T,TRUE,NA,/Users/martincz/GitHub/COGS119/group_wi26_naive_theories/analysis/../data/raw_data/p1f870lr3ad_1772139911965.csv,4th Year,Female,22,Cognitive Science,Testing people's knowledge ,Nope,FALSE
2260,html-keyboard-response,97,90,412447,p1f870lr3ad,frog,z,"<div style=""font-size:30pt;"">Intelligence is heritable.</div>",Genetics,T,F,Heritability,FALSE,T,TRUE,NA,/Users/martincz/GitHub/COGS119/group_wi26_naive_theories/analysis/../data/raw_data/p1f870lr3ad_1772139911965.csv,4th Year,Female,22,Cognitive Science,Testing people's knowledge ,Nope,FALSE
1743,html-keyboard-response,98,91,414692,p1f870lr3ad,frog,t,"<div style=""font-size:30pt;"">Press T if you are paying attention. Do not press z or m.</div>",Genetics,T3,T3,AttentionCheck,TRUE,T3,TRUE,NA,/Users/martincz/GitHub/COGS119/group_wi26_naive_theories/analysis/../data/raw_data/p1f870lr3ad_1772139911965.csv,4th Year,Female,22,Cognitive Science,Testing people's knowledge ,Nope,FALSE
2375,html-keyboard-response,99,92,417569,p1f870lr3ad,frog,z,"<div style=""font-size:30pt;"">Viruses can change one's genome.</div>",Genetics,T,F,Mutation,FALSE,T,TRUE,NA,/Users/martincz/GitHub/COGS119/group_wi26_naive_theories/analysis/../data/raw_data/p1f870lr3ad_1772139911965.csv,4th Year,Female,22,Cognitive Science,Testing people's knowledge ,Nope,FALSE
2284,html-keyboard-response,100,93,420355,p1f870lr3ad,frog,m,"<div style=""font-size:30pt;"">Genes that code for eye color can be found in the eye.</div>",Genetics,T,T,Expression,TRUE,F,FALSE,NA,/Users/martincz/GitHub/COGS119/group_wi26_naive_theories/analysis/../data/raw_data/p1f870lr3ad_1772139911965.csv,4th Year,Female,22,Cognitive Science,Testing people's knowledge ,Nope,FALSE
1481,html-keyboard-response,101,94,422339,p1f870lr3ad,frog,m,"<div style=""font-size:30pt;"">Sunscreen can change one's genome.</div>",Genetics,F,F,Mutation,TRUE,F,TRUE,NA,/Users/martincz/GitHub/COGS119/group_wi26_naive_theories/analysis/../data/raw_data/p1f870lr3ad_1772139911965.csv,4th Year,Female,22,Cognitive Science,Testing people's knowledge ,Nope,FALSE
1301,html-keyboard-response,102,95,424142,p1f870lr3ad,frog,z,"<div style=""font-size:30pt;"">Radiation can change one's genome.</div>",Genetics,T,T,Mutation,TRUE,T,TRUE,NA,/Users/martincz/GitHub/COGS119/group_wi26_naive_theories/analysis/../data/raw_data/p1f870lr3ad_1772139911965.csv,4th Year,Female,22,Cognitive Science,Testing people's knowledge ,Nope,FALSE
2097,html-keyboard-response,103,96,426741,p1f870lr3ad,frog,m,"<div style=""font-size:30pt;"">A blue-eyed baby must have two blue-eyed parents.</div>",Genetics,F,T,Dominance,FALSE,F,TRUE,NA,/Users/martincz/GitHub/COGS119/group_wi26_naive_theories/analysis/../data/raw_data/p1f870lr3ad_1772139911965.csv,4th Year,Female,22,Cognitive Science,Testing people's knowledge ,Nope,FALSE
2278,html-keyboard-response,104,97,429521,p1f870lr3ad,frog,z,"<div style=""font-size:30pt;"">Two blue-eyed parents could have a brown-eyed baby.</div>",Genetics,F,F,Dominance,TRUE,T,FALSE,NA,/Users/martincz/GitHub/COGS119/group_wi26_naive_theories/analysis/../data/raw_data/p1f870lr3ad_1772139911965.csv,4th Year,Female,22,Cognitive Science,Testing people's knowledge ,Nope,FALSE
3088,html-keyboard-response,105,98,433111,p1f870lr3ad,frog,m,"<div style=""font-size:30pt;"">Humans have more chromosomes than mosquitoes.</div>",Genetics,T,T,Chromosome,TRUE,F,FALSE,NA,/Users/martincz/GitHub/COGS119/group_wi26_naive_theories/analysis/../data/raw_data/p1f870lr3ad_1772139911965.csv,4th Year,Female,22,Cognitive Science,Testing people's knowledge ,Nope,FALSE
2877,html-keyboard-response,106,99,436490,p1f870lr3ad,frog,m,"<div style=""font-size:30pt;"">Skin cells have more chromosomes than egg cells.</div>",Genetics,T,F,Chromosome,FALSE,F,FALSE,NA,/Users/martincz/GitHub/COGS119/group_wi26_naive_theories/analysis/../data/raw_data/p1f870lr3ad_1772139911965.csv,4th Year,Female,22,Cognitive Science,Testing people's knowledge ,Nope,FALSE
2215,html-keyboard-response,107,100,439208,p1f870lr3ad,frog,z,"<div style=""font-size:30pt;"">Two brown-eyed parents could have a blue-eyed baby.</div>",Genetics,T,F,Dominance,FALSE,T,TRUE,NA,/Users/martincz/GitHub/COGS119/group_wi26_naive_theories/analysis/../data/raw_data/p1f870lr3ad_1772139911965.csv,4th Year,Female,22,Cognitive Science,Testing people's knowledge ,Nope,FALSE
2696,html-keyboard-response,108,101,442406,p1f870lr3ad,frog,m,"<div style=""font-size:30pt;"">Immunity to chickenpox is heritable.</div>",Genetics,F,T,Heritability,FALSE,F,TRUE,NA,/Users/martincz/GitHub/COGS119/group_wi26_naive_theories/analysis/../data/raw_data/p1f870lr3ad_1772139911965.csv,4th Year,Female,22,Cognitive Science,Testing people's knowledge ,Nope,FALSE
2567,html-keyboard-response,109,102,445475,p1f870lr3ad,frog,z,"<div style=""font-size:30pt;"">Two brown-eyed parents could have a brown-eyed baby.</div>",Genetics,T,T,Dominance,TRUE,T,TRUE,NA,/Users/martincz/GitHub/COGS119/group_wi26_naive_theories/analysis/../data/raw_data/p1f870lr3ad_1772139911965.csv,4th Year,Female,22,Cognitive Science,Testing people's knowledge ,Nope,FALSE
4719,html-keyboard-response,110,103,450696,p1f870lr3ad,frog,m,"<div style=""font-size:30pt;"">Adults have more chromosomes than children.</div>",Genetics,F,T,Chromosome,FALSE,F,TRUE,NA,/Users/martincz/GitHub/COGS119/group_wi26_naive_theories/analysis/../data/raw_data/p1f870lr3ad_1772139911965.csv,4th Year,Female,22,Cognitive Science,Testing people's knowledge ,Nope,FALSE
1515,html-keyboard-response,111,104,452713,p1f870lr3ad,frog,m,"<div style=""font-size:30pt;"">Pierced ears are heritable.</div>",Genetics,F,F,Heritability,TRUE,F,TRUE,NA,/Users/martincz/GitHub/COGS119/group_wi26_naive_theories/analysis/../data/raw_data/p1f870lr3ad_1772139911965.csv,4th Year,Female,22,Cognitive Science,Testing people's knowledge ,Nope,FALSE
1598,html-keyboard-response,112,105,454814,p1f870lr3ad,frog,m,"<div style=""font-size:30pt;"">Exercise can change one's genome.</div>",Genetics,F,T,Mutation,FALSE,F,TRUE,NA,/Users/martincz/GitHub/COGS119/group_wi26_naive_theories/analysis/../data/raw_data/p1f870lr3ad_1772139911965.csv,4th Year,Female,22,Cognitive Science,Testing people's knowledge ,Nope,FALSE
5877,html-keyboard-response,114,106,462231,p1f870lr3ad,frog,z,"<div style=""font-size:30pt;"">Constant motion requires constant force.</div>",Mechanics,F,T,Acceleration,FALSE,T,FALSE,NA,/Users/martincz/GitHub/COGS119/group_wi26_naive_theories/analysis/../data/raw_data/p1f870lr3ad_1772139911965.csv,4th Year,Female,22,Cognitive Science,Testing people's knowledge ,Nope,FALSE
1925,html-keyboard-response,115,107,464659,p1f870lr3ad,frog,z,"<div style=""font-size:30pt;"">Forces can be transferred from one object to another.</div>",Mechanics,F,T,Momentum,FALSE,T,FALSE,NA,/Users/martincz/GitHub/COGS119/group_wi26_naive_theories/analysis/../data/raw_data/p1f870lr3ad_1772139911965.csv,4th Year,Female,22,Cognitive Science,Testing people's knowledge ,Nope,FALSE
4797,html-keyboard-response,116,108,469958,p1f870lr3ad,frog,m,"<div style=""font-size:30pt;"">Bright objects fall through air faster than dark objects.</div>",Mechanics,F,F,Gravity,TRUE,F,TRUE,NA,/Users/martincz/GitHub/COGS119/group_wi26_naive_theories/analysis/../data/raw_data/p1f870lr3ad_1772139911965.csv,4th Year,Female,22,Cognitive Science,Testing people's knowledge ,Nope,FALSE
1952,html-keyboard-response,117,109,472413,p1f870lr3ad,frog,z,"<div style=""font-size:30pt;"">Energy can be transferred from one object to another.</div>",Mechanics,T,F,Momentum,FALSE,T,TRUE,NA,/Users/martincz/GitHub/COGS119/group_wi26_naive_theories/analysis/../data/raw_data/p1f870lr3ad_1772139911965.csv,4th Year,Female,22,Cognitive Science,Testing people's knowledge ,Nope,FALSE
2115,html-keyboard-response,118,110,475031,p1f870lr3ad,frog,m,"<div style=""font-size:30pt;"">Forces can be balanced or unbalanced.</div>",Mechanics,T,F,Force,FALSE,F,FALSE,NA,/Users/martincz/GitHub/COGS119/group_wi26_naive_theories/analysis/../data/raw_data/p1f870lr3ad_1772139911965.csv,4th Year,Female,22,Cognitive Science,Testing people's knowledge ,Nope,FALSE
3235,html-keyboard-response,119,111,478769,p1f870lr3ad,frog,m,"<div style=""font-size:30pt;"">Pointy objects fall through air faster than flat objects.</div>",Mechanics,T,F,Gravity,FALSE,F,FALSE,NA,/Users/martincz/GitHub/COGS119/group_wi26_naive_theories/analysis/../data/raw_data/p1f870lr3ad_1772139911965.csv,4th Year,Female,22,Cognitive Science,Testing people's knowledge ,Nope,FALSE
3516,html-keyboard-response,120,112,482786,p1f870lr3ad,frog,z,"<div style=""font-size:30pt;"">Constant acceleration requires constant force.</div>",Mechanics,T,T,Acceleration,TRUE,T,TRUE,NA,/Users/martincz/GitHub/COGS119/group_wi26_naive_theories/analysis/../data/raw_data/p1f870lr3ad_1772139911965.csv,4th Year,Female,22,Cognitive Science,Testing people's knowledge ,Nope,FALSE
1401,html-keyboard-response,121,113,484689,p1f870lr3ad,frog,t,"<div style=""font-size:30pt;"">Press T if you are paying attention. Do not press z or m.</div>",Mechanics,T3,T3,AttentionCheck,TRUE,T3,TRUE,NA,/Users/martincz/GitHub/COGS119/group_wi26_naive_theories/analysis/../data/raw_data/p1f870lr3ad_1772139911965.csv,4th Year,Female,22,Cognitive Science,Testing people's knowledge ,Nope,FALSE
2800,html-keyboard-response,122,114,487991,p1f870lr3ad,frog,m,"<div style=""font-size:30pt;"">Forces can be straight or curved.</div>",Mechanics,F,T,Force,FALSE,F,TRUE,NA,/Users/martincz/GitHub/COGS119/group_wi26_naive_theories/analysis/../data/raw_data/p1f870lr3ad_1772139911965.csv,4th Year,Female,22,Cognitive Science,Testing people's knowledge ,Nope,FALSE
1529,html-keyboard-response,123,115,490023,p1f870lr3ad,frog,m,"<div style=""font-size:30pt;"">Forces can be male or female.</div>",Mechanics,F,F,Force,TRUE,F,TRUE,NA,/Users/martincz/GitHub/COGS119/group_wi26_naive_theories/analysis/../data/raw_data/p1f870lr3ad_1772139911965.csv,4th Year,Female,22,Cognitive Science,Testing people's knowledge ,Nope,FALSE
3882,html-keyboard-response,124,116,494408,p1f870lr3ad,frog,m,"<div style=""font-size:30pt;"">A moving bullet loses weight.</div>",Mechanics,F,F,Velocity,TRUE,F,TRUE,NA,/Users/martincz/GitHub/COGS119/group_wi26_naive_theories/analysis/../data/raw_data/p1f870lr3ad_1772139911965.csv,4th Year,Female,22,Cognitive Science,Testing people's knowledge ,Nope,FALSE
2418,html-keyboard-response,125,117,497328,p1f870lr3ad,frog,m,"<div style=""font-size:30pt;"">Anvils fall through air faster than feathers.</div>",Mechanics,T,T,Gravity,TRUE,F,FALSE,NA,/Users/martincz/GitHub/COGS119/group_wi26_naive_theories/analysis/../data/raw_data/p1f870lr3ad_1772139911965.csv,4th Year,Female,22,Cognitive Science,Testing people's knowledge ,Nope,FALSE
2398,html-keyboard-response,126,118,500229,p1f870lr3ad,frog,z,"<div style=""font-size:30pt;"">Momentum can be transferred from one object to another.</div>",Mechanics,T,T,Momentum,TRUE,T,TRUE,NA,/Users/martincz/GitHub/COGS119/group_wi26_naive_theories/analysis/../data/raw_data/p1f870lr3ad_1772139911965.csv,4th Year,Female,22,Cognitive Science,Testing people's knowledge ,Nope,FALSE
1331,html-keyboard-response,127,119,502061,p1f870lr3ad,frog,z,"<div style=""font-size:30pt;"">Forces can be strong or weak.</div>",Mechanics,T,T,Force,TRUE,T,TRUE,NA,/Users/martincz/GitHub/COGS119/group_wi26_naive_theories/analysis/../data/raw_data/p1f870lr3ad_1772139911965.csv,4th Year,Female,22,Cognitive Science,Testing people's knowledge ,Nope,FALSE
1947,html-keyboard-response,128,120,504511,p1f870lr3ad,frog,m,"<div style=""font-size:30pt;"">Heavy balls fall through air faster than light balls.</div>",Mechanics,F,T,Gravity,FALSE,F,TRUE,NA,/Users/martincz/GitHub/COGS119/group_wi26_naive_theories/analysis/../data/raw_data/p1f870lr3ad_1772139911965.csv,4th Year,Female,22,Cognitive Science,Testing people's knowledge ,Nope,FALSE
3265,html-keyboard-response,129,121,508278,p1f870lr3ad,frog,m,"<div style=""font-size:30pt;"">A moving bullet loses height.</div>",Mechanics,T,F,Velocity,FALSE,F,FALSE,NA,/Users/martincz/GitHub/COGS119/group_wi26_naive_theories/analysis/../data/raw_data/p1f870lr3ad_1772139911965.csv,4th Year,Female,22,Cognitive Science,Testing people's knowledge ,Nope,FALSE
4821,html-keyboard-response,130,122,513601,p1f870lr3ad,frog,m,"<div style=""font-size:30pt;"">Constant speed requires constant acceleration.</div>",Mechanics,F,F,Acceleration,TRUE,F,TRUE,NA,/Users/martincz/GitHub/COGS119/group_wi26_naive_theories/analysis/../data/raw_data/p1f870lr3ad_1772139911965.csv,4th Year,Female,22,Cognitive Science,Testing people's knowledge ,Nope,FALSE
2032,html-keyboard-response,131,123,516135,p1f870lr3ad,frog,z,"<div style=""font-size:30pt;"">Color can be transferred from one object to another.</div>",Mechanics,F,F,Momentum,TRUE,T,FALSE,NA,/Users/martincz/GitHub/COGS119/group_wi26_naive_theories/analysis/../data/raw_data/p1f870lr3ad_1772139911965.csv,4th Year,Female,22,Cognitive Science,Testing people's knowledge ,Nope,FALSE
4210,html-keyboard-response,132,124,520847,p1f870lr3ad,frog,m,"<div style=""font-size:30pt;"">Constant force can yield constant rest.</div>",Mechanics,T,F,Acceleration,FALSE,F,FALSE,NA,/Users/martincz/GitHub/COGS119/group_wi26_naive_theories/analysis/../data/raw_data/p1f870lr3ad_1772139911965.csv,4th Year,Female,22,Cognitive Science,Testing people's knowledge ,Nope,FALSE
1513,html-keyboard-response,133,125,522861,p1f870lr3ad,frog,z,"<div style=""font-size:30pt;"">A moving bullet loses speed.</div>",Mechanics,T,T,Velocity,TRUE,T,TRUE,NA,/Users/martincz/GitHub/COGS119/group_wi26_naive_theories/analysis/../data/raw_data/p1f870lr3ad_1772139911965.csv,4th Year,Female,22,Cognitive Science,Testing people's knowledge ,Nope,FALSE
3028,html-keyboard-response,134,126,526392,p1f870lr3ad,frog,m,"<div style=""font-size:30pt;"">A moving bullet loses force.</div>",Mechanics,F,T,Velocity,FALSE,F,TRUE,NA,/Users/martincz/GitHub/COGS119/group_wi26_naive_theories/analysis/../data/raw_data/p1f870lr3ad_1772139911965.csv,4th Year,Female,22,Cognitive Science,Testing people's knowledge ,Nope,FALSE
7668,html-keyboard-response,136,127,535942,p1f870lr3ad,frog,z,"<div style=""font-size:30pt;"">Being cold can make a person sick.</div>",Germs,F,T,Contagion,FALSE,T,FALSE,NA,/Users/martincz/GitHub/COGS119/group_wi26_naive_theories/analysis/../data/raw_data/p1f870lr3ad_1772139911965.csv,4th Year,Female,22,Cognitive Science,Testing people's knowledge ,Nope,FALSE
5724,html-keyboard-response,137,128,542169,p1f870lr3ad,frog,m,"<div style=""font-size:30pt;"">Germs enter the body through the eyes.</div>",Germs,T,F,Infection,FALSE,F,FALSE,NA,/Users/martincz/GitHub/COGS119/group_wi26_naive_theories/analysis/../data/raw_data/p1f870lr3ad_1772139911965.csv,4th Year,Female,22,Cognitive Science,Testing people's knowledge ,Nope,FALSE
2909,html-keyboard-response,138,129,545579,p1f870lr3ad,frog,z,"<div style=""font-size:30pt;"">Urine contains germs.</div>",Germs,F,T,Contamination,FALSE,T,FALSE,NA,/Users/martincz/GitHub/COGS119/group_wi26_naive_theories/analysis/../data/raw_data/p1f870lr3ad_1772139911965.csv,4th Year,Female,22,Cognitive Science,Testing people's knowledge ,Nope,FALSE
7183,html-keyboard-response,139,130,553265,p1f870lr3ad,frog,m,"<div style=""font-size:30pt;"">Heat kills germs.</div>",Germs,T,F,Sterilization,FALSE,F,FALSE,NA,/Users/martincz/GitHub/COGS119/group_wi26_naive_theories/analysis/../data/raw_data/p1f870lr3ad_1772139911965.csv,4th Year,Female,22,Cognitive Science,Testing people's knowledge ,Nope,FALSE
1723,html-keyboard-response,140,131,555490,p1f870lr3ad,frog,t,"<div style=""font-size:30pt;"">Press T if you are paying attention. Do not press z or m.</div>",Germs,T3,T3,AttentionCheck,TRUE,T3,TRUE,NA,/Users/martincz/GitHub/COGS119/group_wi26_naive_theories/analysis/../data/raw_data/p1f870lr3ad_1772139911965.csv,4th Year,Female,22,Cognitive Science,Testing people's knowledge ,Nope,FALSE
1111,html-keyboard-response,141,132,557103,p1f870lr3ad,frog,m,"<div style=""font-size:30pt;"">Germs have feelings.</div>",Germs,F,F,Microbe,TRUE,F,TRUE,NA,/Users/martincz/GitHub/COGS119/group_wi26_naive_theories/analysis/../data/raw_data/p1f870lr3ad_1772139911965.csv,4th Year,Female,22,Cognitive Science,Testing people's knowledge ,Nope,FALSE
1948,html-keyboard-response,142,133,559554,p1f870lr3ad,frog,m,"<div style=""font-size:30pt;"">Being happy can make a person sick.</div>",Germs,F,F,Contagion,TRUE,F,TRUE,NA,/Users/martincz/GitHub/COGS119/group_wi26_naive_theories/analysis/../data/raw_data/p1f870lr3ad_1772139911965.csv,4th Year,Female,22,Cognitive Science,Testing people's knowledge ,Nope,FALSE
2755,html-keyboard-response,143,134,562811,p1f870lr3ad,frog,z,"<div style=""font-size:30pt;"">Alcohol kills germs.</div>",Germs,T,T,Sterilization,TRUE,T,TRUE,NA,/Users/martincz/GitHub/COGS119/group_wi26_naive_theories/analysis/../data/raw_data/p1f870lr3ad_1772139911965.csv,4th Year,Female,22,Cognitive Science,Testing people's knowledge ,Nope,FALSE
1128,html-keyboard-response,144,135,564440,p1f870lr3ad,frog,m,"<div style=""font-size:30pt;"">Water kills germs.</div>",Germs,F,T,Sterilization,FALSE,F,TRUE,NA,/Users/martincz/GitHub/COGS119/group_wi26_naive_theories/analysis/../data/raw_data/p1f870lr3ad_1772139911965.csv,4th Year,Female,22,Cognitive Science,Testing people's knowledge ,Nope,FALSE
1828,html-keyboard-response,145,136,566771,p1f870lr3ad,frog,z,"<div style=""font-size:30pt;"">Germs enter the body through cuts.</div>",Germs,T,T,Infection,TRUE,T,TRUE,NA,/Users/martincz/GitHub/COGS119/group_wi26_naive_theories/analysis/../data/raw_data/p1f870lr3ad_1772139911965.csv,4th Year,Female,22,Cognitive Science,Testing people's knowledge ,Nope,FALSE
2943,html-keyboard-response,146,137,570217,p1f870lr3ad,frog,z,"<div style=""font-size:30pt;"">Being sneezed on can make a person sick.</div>",Germs,T,T,Contagion,TRUE,T,TRUE,NA,/Users/martincz/GitHub/COGS119/group_wi26_naive_theories/analysis/../data/raw_data/p1f870lr3ad_1772139911965.csv,4th Year,Female,22,Cognitive Science,Testing people's knowledge ,Nope,FALSE
1504,html-keyboard-response,147,138,572223,p1f870lr3ad,frog,m,"<div style=""font-size:30pt;"">Germs have an odor.</div>",Germs,F,T,Microbe,FALSE,F,TRUE,NA,/Users/martincz/GitHub/COGS119/group_wi26_naive_theories/analysis/../data/raw_data/p1f870lr3ad_1772139911965.csv,4th Year,Female,22,Cognitive Science,Testing people's knowledge ,Nope,FALSE
1074,html-keyboard-response,148,139,573800,p1f870lr3ad,frog,m,"<div style=""font-size:30pt;"">Kindness kills germs.</div>",Germs,F,F,Sterilization,TRUE,F,TRUE,NA,/Users/martincz/GitHub/COGS119/group_wi26_naive_theories/analysis/../data/raw_data/p1f870lr3ad_1772139911965.csv,4th Year,Female,22,Cognitive Science,Testing people's knowledge ,Nope,FALSE
1782,html-keyboard-response,149,140,576084,p1f870lr3ad,frog,m,"<div style=""font-size:30pt;"">Sunshine contains germs.</div>",Germs,F,F,Contamination,TRUE,F,TRUE,NA,/Users/martincz/GitHub/COGS119/group_wi26_naive_theories/analysis/../data/raw_data/p1f870lr3ad_1772139911965.csv,4th Year,Female,22,Cognitive Science,Testing people's knowledge ,Nope,FALSE
1145,html-keyboard-response,150,141,577731,p1f870lr3ad,frog,m,"<div style=""font-size:30pt;"">Germs have a shape.</div>",Germs,T,T,Microbe,TRUE,F,FALSE,NA,/Users/martincz/GitHub/COGS119/group_wi26_naive_theories/analysis/../data/raw_data/p1f870lr3ad_1772139911965.csv,4th Year,Female,22,Cognitive Science,Testing people's knowledge ,Nope,FALSE
2550,html-keyboard-response,151,142,580783,p1f870lr3ad,frog,m,"<div style=""font-size:30pt;"">Germs enter the body through the skin.</div>",Germs,F,T,Infection,FALSE,F,TRUE,NA,/Users/martincz/GitHub/COGS119/group_wi26_naive_theories/analysis/../data/raw_data/p1f870lr3ad_1772139911965.csv,4th Year,Female,22,Cognitive Science,Testing people's knowledge ,Nope,FALSE
1972,html-keyboard-response,152,143,583257,p1f870lr3ad,frog,z,"<div style=""font-size:30pt;"">Dish sponges contain germs.</div>",Germs,T,F,Contamination,FALSE,T,TRUE,NA,/Users/martincz/GitHub/COGS119/group_wi26_naive_theories/analysis/../data/raw_data/p1f870lr3ad_1772139911965.csv,4th Year,Female,22,Cognitive Science,Testing people's knowledge ,Nope,FALSE
3310,html-keyboard-response,153,144,587069,p1f870lr3ad,frog,m,"<div style=""font-size:30pt;"">Germs have DNA.</div>",Germs,T,F,Microbe,FALSE,F,FALSE,NA,/Users/martincz/GitHub/COGS119/group_wi26_naive_theories/analysis/../data/raw_data/p1f870lr3ad_1772139911965.csv,4th Year,Female,22,Cognitive Science,Testing people's knowledge ,Nope,FALSE
1693,html-keyboard-response,154,145,589265,p1f870lr3ad,frog,z,"<div style=""font-size:30pt;"">Rotting meat contains germs.</div>",Germs,T,T,Contamination,TRUE,T,TRUE,NA,/Users/martincz/GitHub/COGS119/group_wi26_naive_theories/analysis/../data/raw_data/p1f870lr3ad_1772139911965.csv,4th Year,Female,22,Cognitive Science,Testing people's knowledge ,Nope,FALSE
2462,html-keyboard-response,155,146,592229,p1f870lr3ad,frog,m,"<div style=""font-size:30pt;"">Being depressed can make a person sick.</div>",Germs,T,F,Contagion,FALSE,F,FALSE,NA,/Users/martincz/GitHub/COGS119/group_wi26_naive_theories/analysis/../data/raw_data/p1f870lr3ad_1772139911965.csv,4th Year,Female,22,Cognitive Science,Testing people's knowledge ,Nope,FALSE
1651,html-keyboard-response,156,147,594383,p1f870lr3ad,frog,m,"<div style=""font-size:30pt;"">Germs enter the body through the hair.</div>",Germs,F,F,Infection,TRUE,F,TRUE,NA,/Users/martincz/GitHub/COGS119/group_wi26_naive_theories/analysis/../data/raw_data/p1f870lr3ad_1772139911965.csv,4th Year,Female,22,Cognitive Science,Testing people's knowledge ,Nope,FALSE
5323,html-keyboard-response,4,1,32497,p1fu5vcb0jw,gecko,m,"<div style=""font-size:30pt;"">A shadow can be cut in half.</div>",Matter,F,T,Divisibility,FALSE,F,TRUE,NA,/Users/martincz/GitHub/COGS119/group_wi26_naive_theories/analysis/../data/raw_data/p1fu5vcb0jw_1772141927155.csv,4th Year,Female,22,CBN,I think it was testing whether or not naive theories stick to scientific theories.,no,TRUE
3030,html-keyboard-response,5,2,36044,p1fu5vcb0jw,gecko,m,"<div style=""font-size:30pt;"">Atoms are visible to the naked eye.</div>",Matter,F,F,Atom,TRUE,F,TRUE,NA,/Users/martincz/GitHub/COGS119/group_wi26_naive_theories/analysis/../data/raw_data/p1fu5vcb0jw_1772141927155.csv,4th Year,Female,22,CBN,I think it was testing whether or not naive theories stick to scientific theories.,no,TRUE
2961,html-keyboard-response,6,3,39515,p1fu5vcb0jw,gecko,z,"<div style=""font-size:30pt;"">A grain of sand can be cut in half.</div>",Matter,T,F,Divisibility,FALSE,T,TRUE,NA,/Users/martincz/GitHub/COGS119/group_wi26_naive_theories/analysis/../data/raw_data/p1fu5vcb0jw_1772141927155.csv,4th Year,Female,22,CBN,I think it was testing whether or not naive theories stick to scientific theories.,no,TRUE
2497,html-keyboard-response,7,4,42519,p1fu5vcb0jw,gecko,z,"<div style=""font-size:30pt;"">Press T if you are paying attention. Do not press z or m.</div>",Matter,T3,T3,AttentionCheck,TRUE,T,FALSE,NA,/Users/martincz/GitHub/COGS119/group_wi26_naive_theories/analysis/../data/raw_data/p1fu5vcb0jw_1772141927155.csv,4th Year,Female,22,CBN,I think it was testing whether or not naive theories stick to scientific theories.,no,TRUE
1760,html-keyboard-response,8,5,44783,p1fu5vcb0jw,gecko,z,"<div style=""font-size:30pt;"">Steel is denser than foam.</div>",Matter,T,T,Density,TRUE,T,TRUE,NA,/Users/martincz/GitHub/COGS119/group_wi26_naive_theories/analysis/../data/raw_data/p1fu5vcb0jw_1772141927155.csv,4th Year,Female,22,CBN,I think it was testing whether or not naive theories stick to scientific theories.,no,TRUE
1439,html-keyboard-response,9,6,46736,p1fu5vcb0jw,gecko,m,"<div style=""font-size:30pt;"">A cold penny is denser than a hot penny.</div>",Matter,T,F,Density,FALSE,F,FALSE,NA,/Users/martincz/GitHub/COGS119/group_wi26_naive_theories/analysis/../data/raw_data/p1fu5vcb0jw_1772141927155.csv,4th Year,Female,22,CBN,I think it was testing whether or not naive theories stick to scientific theories.,no,TRUE
3927,html-keyboard-response,10,7,51173,p1fu5vcb0jw,gecko,m,"<div style=""font-size:30pt;"">A pound of steel weighs more than a ton of steel.</div>",Matter,F,F,Weight,TRUE,F,TRUE,NA,/Users/martincz/GitHub/COGS119/group_wi26_naive_theories/analysis/../data/raw_data/p1fu5vcb0jw_1772141927155.csv,4th Year,Female,22,CBN,I think it was testing whether or not naive theories stick to scientific theories.,no,TRUE
2163,html-keyboard-response,11,8,53844,p1fu5vcb0jw,gecko,z,"<div style=""font-size:30pt;"">Atoms are the constituents of matter.</div>",Matter,T,T,Atom,TRUE,T,TRUE,NA,/Users/martincz/GitHub/COGS119/group_wi26_naive_theories/analysis/../data/raw_data/p1fu5vcb0jw_1772141927155.csv,4th Year,Female,22,CBN,I think it was testing whether or not naive theories stick to scientific theories.,no,TRUE
2628,html-keyboard-response,12,9,56975,p1fu5vcb0jw,gecko,m,"<div style=""font-size:30pt;"">A liter of water weighs more than a liter of air.</div>",Matter,T,T,Weight,TRUE,F,FALSE,NA,/Users/martincz/GitHub/COGS119/group_wi26_naive_theories/analysis/../data/raw_data/p1fu5vcb0jw_1772141927155.csv,4th Year,Female,22,CBN,I think it was testing whether or not naive theories stick to scientific theories.,no,TRUE
1652,html-keyboard-response,13,10,59139,p1fu5vcb0jw,gecko,z,"<div style=""font-size:30pt;"">Ice is denser than water.</div>",Matter,F,T,Density,FALSE,T,FALSE,NA,/Users/martincz/GitHub/COGS119/group_wi26_naive_theories/analysis/../data/raw_data/p1fu5vcb0jw_1772141927155.csv,4th Year,Female,22,CBN,I think it was testing whether or not naive theories stick to scientific theories.,no,TRUE
1797,html-keyboard-response,14,11,61444,p1fu5vcb0jw,gecko,m,"<div style=""font-size:30pt;"">A pound of steel weighs more than a pound of feathers.</div>",Matter,F,T,Weight,FALSE,F,TRUE,NA,/Users/martincz/GitHub/COGS119/group_wi26_naive_theories/analysis/../data/raw_data/p1fu5vcb0jw_1772141927155.csv,4th Year,Female,22,CBN,I think it was testing whether or not naive theories stick to scientific theories.,no,TRUE
7583,html-keyboard-response,15,12,69531,p1fu5vcb0jw,gecko,z,"<div style=""font-size:30pt;"">Rocks are composed of matter.</div>",Matter,T,T,Mass,TRUE,T,TRUE,NA,/Users/martincz/GitHub/COGS119/group_wi26_naive_theories/analysis/../data/raw_data/p1fu5vcb0jw_1772141927155.csv,4th Year,Female,22,CBN,I think it was testing whether or not naive theories stick to scientific theories.,no,TRUE
1001,html-keyboard-response,16,13,71035,p1fu5vcb0jw,gecko,m,"<div style=""font-size:30pt;"">Atoms are weightless.</div>",Matter,F,T,Atom,FALSE,F,TRUE,NA,/Users/martincz/GitHub/COGS119/group_wi26_naive_theories/analysis/../data/raw_data/p1fu5vcb0jw_1772141927155.csv,4th Year,Female,22,CBN,I think it was testing whether or not naive theories stick to scientific theories.,no,TRUE
1493,html-keyboard-response,17,14,73032,p1fu5vcb0jw,gecko,z,"<div style=""font-size:30pt;"">Foam is denser than brick.</div>",Matter,F,F,Density,TRUE,T,FALSE,NA,/Users/martincz/GitHub/COGS119/group_wi26_naive_theories/analysis/../data/raw_data/p1fu5vcb0jw_1772141927155.csv,4th Year,Female,22,CBN,I think it was testing whether or not naive theories stick to scientific theories.,no,TRUE
6905,html-keyboard-response,18,15,80448,p1fu5vcb0jw,gecko,z,"<div style=""font-size:30pt;"">Fire is composed of matter.</div>",Matter,F,T,Mass,FALSE,T,FALSE,NA,/Users/martincz/GitHub/COGS119/group_wi26_naive_theories/analysis/../data/raw_data/p1fu5vcb0jw_1772141927155.csv,4th Year,Female,22,CBN,I think it was testing whether or not naive theories stick to scientific theories.,no,TRUE
1726,html-keyboard-response,19,16,82686,p1fu5vcb0jw,gecko,m,"<div style=""font-size:30pt;"">An idea can be cut in half.</div>",Matter,F,F,Divisibility,TRUE,F,TRUE,NA,/Users/martincz/GitHub/COGS119/group_wi26_naive_theories/analysis/../data/raw_data/p1fu5vcb0jw_1772141927155.csv,4th Year,Female,22,CBN,I think it was testing whether or not naive theories stick to scientific theories.,no,TRUE
2672,html-keyboard-response,20,17,85867,p1fu5vcb0jw,gecko,m,"<div style=""font-size:30pt;"">A liter of water weighs more than a liter of ice.</div>",Matter,T,F,Weight,FALSE,F,FALSE,NA,/Users/martincz/GitHub/COGS119/group_wi26_naive_theories/analysis/../data/raw_data/p1fu5vcb0jw_1772141927155.csv,4th Year,Female,22,CBN,I think it was testing whether or not naive theories stick to scientific theories.,no,TRUE
1858,html-keyboard-response,21,18,88239,p1fu5vcb0jw,gecko,z,"<div style=""font-size:30pt;"">Air is composed of matter.</div>",Matter,T,F,Mass,FALSE,T,TRUE,NA,/Users/martincz/GitHub/COGS119/group_wi26_naive_theories/analysis/../data/raw_data/p1fu5vcb0jw_1772141927155.csv,4th Year,Female,22,CBN,I think it was testing whether or not naive theories stick to scientific theories.,no,TRUE
1617,html-keyboard-response,22,19,90360,p1fu5vcb0jw,gecko,z,"<div style=""font-size:30pt;"">Atoms are mostly empty space.</div>",Matter,T,F,Atom,FALSE,T,TRUE,NA,/Users/martincz/GitHub/COGS119/group_wi26_naive_theories/analysis/../data/raw_data/p1fu5vcb0jw_1772141927155.csv,4th Year,Female,22,CBN,I think it was testing whether or not naive theories stick to scientific theories.,no,TRUE
2410,html-keyboard-response,23,20,93273,p1fu5vcb0jw,gecko,m,"<div style=""font-size:30pt;"">Numbers are composed of matter.</div>",Matter,F,F,Mass,TRUE,F,TRUE,NA,/Users/martincz/GitHub/COGS119/group_wi26_naive_theories/analysis/../data/raw_data/p1fu5vcb0jw_1772141927155.csv,4th Year,Female,22,CBN,I think it was testing whether or not naive theories stick to scientific theories.,no,TRUE
1502,html-keyboard-response,24,21,95292,p1fu5vcb0jw,gecko,z,"<div style=""font-size:30pt;"">A log can be cut in half.</div>",Matter,T,T,Divisibility,TRUE,T,TRUE,NA,/Users/martincz/GitHub/COGS119/group_wi26_naive_theories/analysis/../data/raw_data/p1fu5vcb0jw_1772141927155.csv,4th Year,Female,22,CBN,I think it was testing whether or not naive theories stick to scientific theories.,no,TRUE
2009,html-keyboard-response,26,22,99294,p1fu5vcb0jw,gecko,z,"<div style=""font-size:30pt;"">Radiation can change one's genome.</div>",Genetics,T,T,Mutation,TRUE,T,TRUE,NA,/Users/martincz/GitHub/COGS119/group_wi26_naive_theories/analysis/../data/raw_data/p1fu5vcb0jw_1772141927155.csv,4th Year,Female,22,CBN,I think it was testing whether or not naive theories stick to scientific theories.,no,TRUE
1952,html-keyboard-response,27,23,101763,p1fu5vcb0jw,gecko,m,"<div style=""font-size:30pt;"">A blue-eyed baby must have two blue-eyed parents.</div>",Genetics,F,T,Dominance,FALSE,F,TRUE,NA,/Users/martincz/GitHub/COGS119/group_wi26_naive_theories/analysis/../data/raw_data/p1fu5vcb0jw_1772141927155.csv,4th Year,Female,22,CBN,I think it was testing whether or not naive theories stick to scientific theories.,no,TRUE
1102,html-keyboard-response,28,24,103377,p1fu5vcb0jw,gecko,z,"<div style=""font-size:30pt;"">Press T if you are paying attention. Do not press z or m.</div>",Genetics,T3,T3,AttentionCheck,TRUE,T,FALSE,NA,/Users/martincz/GitHub/COGS119/group_wi26_naive_theories/analysis/../data/raw_data/p1fu5vcb0jw_1772141927155.csv,4th Year,Female,22,CBN,I think it was testing whether or not naive theories stick to scientific theories.,no,TRUE
3244,html-keyboard-response,29,25,107132,p1fu5vcb0jw,gecko,z,"<div style=""font-size:30pt;"">Genes that code for eye color can be found in tears.</div>",Genetics,F,T,Expression,FALSE,T,FALSE,NA,/Users/martincz/GitHub/COGS119/group_wi26_naive_theories/analysis/../data/raw_data/p1fu5vcb0jw_1772141927155.csv,4th Year,Female,22,CBN,I think it was testing whether or not naive theories stick to scientific theories.,no,TRUE
1750,html-keyboard-response,30,26,109390,p1fu5vcb0jw,gecko,z,"<div style=""font-size:30pt;"">Genes that code for eye color can be found in hair.</div>",Genetics,F,F,Expression,TRUE,T,FALSE,NA,/Users/martincz/GitHub/COGS119/group_wi26_naive_theories/analysis/../data/raw_data/p1fu5vcb0jw_1772141927155.csv,4th Year,Female,22,CBN,I think it was testing whether or not naive theories stick to scientific theories.,no,TRUE
1995,html-keyboard-response,31,27,111899,p1fu5vcb0jw,gecko,z,"<div style=""font-size:30pt;"">Humans have more chromosomes than mosquitoes.</div>",Genetics,T,T,Chromosome,TRUE,T,TRUE,NA,/Users/martincz/GitHub/COGS119/group_wi26_naive_theories/analysis/../data/raw_data/p1fu5vcb0jw_1772141927155.csv,4th Year,Female,22,CBN,I think it was testing whether or not naive theories stick to scientific theories.,no,TRUE
1139,html-keyboard-response,32,28,113553,p1fu5vcb0jw,gecko,z,"<div style=""font-size:30pt;"">Sunscreen can change one's genome.</div>",Genetics,F,F,Mutation,TRUE,T,FALSE,NA,/Users/martincz/GitHub/COGS119/group_wi26_naive_theories/analysis/../data/raw_data/p1fu5vcb0jw_1772141927155.csv,4th Year,Female,22,CBN,I think it was testing whether or not naive theories stick to scientific theories.,no,TRUE
2519,html-keyboard-response,33,29,116578,p1fu5vcb0jw,gecko,z,"<div style=""font-size:30pt;"">Genes that code for eye color can be found in the liver.</div>",Genetics,T,F,Expression,FALSE,T,TRUE,NA,/Users/martincz/GitHub/COGS119/group_wi26_naive_theories/analysis/../data/raw_data/p1fu5vcb0jw_1772141927155.csv,4th Year,Female,22,CBN,I think it was testing whether or not naive theories stick to scientific theories.,no,TRUE
2854,html-keyboard-response,34,30,119947,p1fu5vcb0jw,gecko,z,"<div style=""font-size:30pt;"">Skin cells have more chromosomes than egg cells.</div>",Genetics,T,F,Chromosome,FALSE,T,TRUE,NA,/Users/martincz/GitHub/COGS119/group_wi26_naive_theories/analysis/../data/raw_data/p1fu5vcb0jw_1772141927155.csv,4th Year,Female,22,CBN,I think it was testing whether or not naive theories stick to scientific theories.,no,TRUE
1853,html-keyboard-response,35,31,122310,p1fu5vcb0jw,gecko,z,"<div style=""font-size:30pt;"">Hair color is heritable.</div>",Genetics,T,T,Heritability,TRUE,T,TRUE,NA,/Users/martincz/GitHub/COGS119/group_wi26_naive_theories/analysis/../data/raw_data/p1fu5vcb0jw_1772141927155.csv,4th Year,Female,22,CBN,I think it was testing whether or not naive theories stick to scientific theories.,no,TRUE
1611,html-keyboard-response,36,32,124438,p1fu5vcb0jw,gecko,m,"<div style=""font-size:30pt;"">Men have more chromosomes than women.</div>",Genetics,F,F,Chromosome,TRUE,F,TRUE,NA,/Users/martincz/GitHub/COGS119/group_wi26_naive_theories/analysis/../data/raw_data/p1fu5vcb0jw_1772141927155.csv,4th Year,Female,22,CBN,I think it was testing whether or not naive theories stick to scientific theories.,no,TRUE
1860,html-keyboard-response,37,33,126803,p1fu5vcb0jw,gecko,z,"<div style=""font-size:30pt;"">Two brown-eyed parents could have a blue-eyed baby.</div>",Genetics,T,F,Dominance,FALSE,T,TRUE,NA,/Users/martincz/GitHub/COGS119/group_wi26_naive_theories/analysis/../data/raw_data/p1fu5vcb0jw_1772141927155.csv,4th Year,Female,22,CBN,I think it was testing whether or not naive theories stick to scientific theories.,no,TRUE
2620,html-keyboard-response,38,34,129930,p1fu5vcb0jw,gecko,z,"<div style=""font-size:30pt;"">Two brown-eyed parents could have a brown-eyed baby.</div>",Genetics,T,T,Dominance,TRUE,T,TRUE,NA,/Users/martincz/GitHub/COGS119/group_wi26_naive_theories/analysis/../data/raw_data/p1fu5vcb0jw_1772141927155.csv,4th Year,Female,22,CBN,I think it was testing whether or not naive theories stick to scientific theories.,no,TRUE
2608,html-keyboard-response,39,35,133040,p1fu5vcb0jw,gecko,m,"<div style=""font-size:30pt;"">Adults have more chromosomes than children.</div>",Genetics,F,T,Chromosome,FALSE,F,TRUE,NA,/Users/martincz/GitHub/COGS119/group_wi26_naive_theories/analysis/../data/raw_data/p1fu5vcb0jw_1772141927155.csv,4th Year,Female,22,CBN,I think it was testing whether or not naive theories stick to scientific theories.,no,TRUE
6685,html-keyboard-response,40,36,140234,p1fu5vcb0jw,gecko,m,"<div style=""font-size:30pt;"">Genes that code for eye color can be found in the eye.</div>",Genetics,T,T,Expression,TRUE,F,FALSE,NA,/Users/martincz/GitHub/COGS119/group_wi26_naive_theories/analysis/../data/raw_data/p1fu5vcb0jw_1772141927155.csv,4th Year,Female,22,CBN,I think it was testing whether or not naive theories stick to scientific theories.,no,TRUE
1667,html-keyboard-response,41,37,142408,p1fu5vcb0jw,gecko,z,"<div style=""font-size:30pt;"">Two blue-eyed parents could have a brown-eyed baby.</div>",Genetics,F,F,Dominance,TRUE,T,FALSE,NA,/Users/martincz/GitHub/COGS119/group_wi26_naive_theories/analysis/../data/raw_data/p1fu5vcb0jw_1772141927155.csv,4th Year,Female,22,CBN,I think it was testing whether or not naive theories stick to scientific theories.,no,TRUE
2399,html-keyboard-response,42,38,145324,p1fu5vcb0jw,gecko,m,"<div style=""font-size:30pt;"">Immunity to chickenpox is heritable.</div>",Genetics,F,T,Heritability,FALSE,F,TRUE,NA,/Users/martincz/GitHub/COGS119/group_wi26_naive_theories/analysis/../data/raw_data/p1fu5vcb0jw_1772141927155.csv,4th Year,Female,22,CBN,I think it was testing whether or not naive theories stick to scientific theories.,no,TRUE
1705,html-keyboard-response,43,39,147547,p1fu5vcb0jw,gecko,m,"<div style=""font-size:30pt;"">Pierced ears are heritable.</div>",Genetics,F,F,Heritability,TRUE,F,TRUE,NA,/Users/martincz/GitHub/COGS119/group_wi26_naive_theories/analysis/../data/raw_data/p1fu5vcb0jw_1772141927155.csv,4th Year,Female,22,CBN,I think it was testing whether or not naive theories stick to scientific theories.,no,TRUE
3327,html-keyboard-response,44,40,151384,p1fu5vcb0jw,gecko,z,"<div style=""font-size:30pt;"">Viruses can change one's genome.</div>",Genetics,T,F,Mutation,FALSE,T,TRUE,NA,/Users/martincz/GitHub/COGS119/group_wi26_naive_theories/analysis/../data/raw_data/p1fu5vcb0jw_1772141927155.csv,4th Year,Female,22,CBN,I think it was testing whether or not naive theories stick to scientific theories.,no,TRUE
1087,html-keyboard-response,45,41,152978,p1fu5vcb0jw,gecko,m,"<div style=""font-size:30pt;"">Intelligence is heritable.</div>",Genetics,T,F,Heritability,FALSE,F,FALSE,NA,/Users/martincz/GitHub/COGS119/group_wi26_naive_theories/analysis/../data/raw_data/p1fu5vcb0jw_1772141927155.csv,4th Year,Female,22,CBN,I think it was testing whether or not naive theories stick to scientific theories.,no,TRUE
1175,html-keyboard-response,46,42,154660,p1fu5vcb0jw,gecko,z,"<div style=""font-size:30pt;"">Exercise can change one's genome.</div>",Genetics,F,T,Mutation,FALSE,T,FALSE,NA,/Users/martincz/GitHub/COGS119/group_wi26_naive_theories/analysis/../data/raw_data/p1fu5vcb0jw_1772141927155.csv,4th Year,Female,22,CBN,I think it was testing whether or not naive theories stick to scientific theories.,no,TRUE
2032,html-keyboard-response,48,43,158610,p1fu5vcb0jw,gecko,m,"<div style=""font-size:30pt;"">1/3 plus 1/3 is 1/3.</div>",Fractions,F,F,Addition,TRUE,F,TRUE,NA,/Users/martincz/GitHub/COGS119/group_wi26_naive_theories/analysis/../data/raw_data/p1fu5vcb0jw_1772141927155.csv,4th Year,Female,22,CBN,I think it was testing whether or not naive theories stick to scientific theories.,no,TRUE
2781,html-keyboard-response,49,44,161905,p1fu5vcb0jw,gecko,z,"<div style=""font-size:30pt;"">1/13 is greater than 1/30.</div>",Fractions,T,F,Ordering,FALSE,T,TRUE,NA,/Users/martincz/GitHub/COGS119/group_wi26_naive_theories/analysis/../data/raw_data/p1fu5vcb0jw_1772141927155.csv,4th Year,Female,22,CBN,I think it was testing whether or not naive theories stick to scientific theories.,no,TRUE
3361,html-keyboard-response,50,45,165778,p1fu5vcb0jw,gecko,z,"<div style=""font-size:30pt;"">4 divided by 2/1 is 2.</div>",Fractions,T,T,Division,TRUE,T,TRUE,NA,/Users/martincz/GitHub/COGS119/group_wi26_naive_theories/analysis/../data/raw_data/p1fu5vcb0jw_1772141927155.csv,4th Year,Female,22,CBN,I think it was testing whether or not naive theories stick to scientific theories.,no,TRUE
3152,html-keyboard-response,51,46,169444,p1fu5vcb0jw,gecko,z,"<div style=""font-size:30pt;"">12/13 is greater than 1/13.</div>",Fractions,T,T,Ordering,TRUE,T,TRUE,NA,/Users/martincz/GitHub/COGS119/group_wi26_naive_theories/analysis/../data/raw_data/p1fu5vcb0jw_1772141927155.csv,4th Year,Female,22,CBN,I think it was testing whether or not naive theories stick to scientific theories.,no,TRUE
2186,html-keyboard-response,52,47,172136,p1fu5vcb0jw,gecko,z,"<div style=""font-size:30pt;"">All integers are expressible as fractions.</div>",Fractions,T,F,Conversion,FALSE,T,TRUE,NA,/Users/martincz/GitHub/COGS119/group_wi26_naive_theories/analysis/../data/raw_data/p1fu5vcb0jw_1772141927155.csv,4th Year,Female,22,CBN,I think it was testing whether or not naive theories stick to scientific theories.,no,TRUE
5144,html-keyboard-response,53,48,177785,p1fu5vcb0jw,gecko,m,"<div style=""font-size:30pt;"">8 divided by 1/2 is 4.</div>",Fractions,F,T,Division,FALSE,F,TRUE,NA,/Users/martincz/GitHub/COGS119/group_wi26_naive_theories/analysis/../data/raw_data/p1fu5vcb0jw_1772141927155.csv,4th Year,Female,22,CBN,I think it was testing whether or not naive theories stick to scientific theories.,no,TRUE
1722,html-keyboard-response,54,49,180014,p1fu5vcb0jw,gecko,z,"<div style=""font-size:30pt;"">There are numbers between 1 and 3.</div>",Fractions,T,T,Infinite density,TRUE,T,TRUE,NA,/Users/martincz/GitHub/COGS119/group_wi26_naive_theories/analysis/../data/raw_data/p1fu5vcb0jw_1772141927155.csv,4th Year,Female,22,CBN,I think it was testing whether or not naive theories stick to scientific theories.,no,TRUE
2359,html-keyboard-response,55,50,182885,p1fu5vcb0jw,gecko,m,"<div style=""font-size:30pt;"">1/17 is greater than 1/9.</div>",Fractions,F,T,Ordering,FALSE,F,TRUE,NA,/Users/martincz/GitHub/COGS119/group_wi26_naive_theories/analysis/../data/raw_data/p1fu5vcb0jw_1772141927155.csv,4th Year,Female,22,CBN,I think it was testing whether or not naive theories stick to scientific theories.,no,TRUE
7253,html-keyboard-response,56,51,190652,p1fu5vcb0jw,gecko,m,"<div style=""font-size:30pt;"">All fractions are expressible as integers.</div>",Fractions,F,F,Conversion,TRUE,F,TRUE,NA,/Users/martincz/GitHub/COGS119/group_wi26_naive_theories/analysis/../data/raw_data/p1fu5vcb0jw_1772141927155.csv,4th Year,Female,22,CBN,I think it was testing whether or not naive theories stick to scientific theories.,no,TRUE
2820,html-keyboard-response,57,52,193978,p1fu5vcb0jw,gecko,m,"<div style=""font-size:30pt;"">8 divided by 2/1 is 3.</div>",Fractions,F,F,Division,TRUE,F,TRUE,NA,/Users/martincz/GitHub/COGS119/group_wi26_naive_theories/analysis/../data/raw_data/p1fu5vcb0jw_1772141927155.csv,4th Year,Female,22,CBN,I think it was testing whether or not naive theories stick to scientific theories.,no,TRUE
2766,html-keyboard-response,58,53,197260,p1fu5vcb0jw,gecko,z,"<div style=""font-size:30pt;"">4 divided by 1/2 is 8.</div>",Fractions,T,F,Division,FALSE,T,TRUE,NA,/Users/martincz/GitHub/COGS119/group_wi26_naive_theories/analysis/../data/raw_data/p1fu5vcb0jw_1772141927155.csv,4th Year,Female,22,CBN,I think it was testing whether or not naive theories stick to scientific theories.,no,TRUE
2143,html-keyboard-response,59,54,199910,p1fu5vcb0jw,gecko,z,"<div style=""font-size:30pt;"">There are numbers between 1/10 and 10/100.</div>",Fractions,F,T,Infinite density,FALSE,T,FALSE,NA,/Users/martincz/GitHub/COGS119/group_wi26_naive_theories/analysis/../data/raw_data/p1fu5vcb0jw_1772141927155.csv,4th Year,Female,22,CBN,I think it was testing whether or not naive theories stick to scientific theories.,no,TRUE
3784,html-keyboard-response,60,55,204208,p1fu5vcb0jw,gecko,m,"<div style=""font-size:30pt;"">2/3 plus 2/4 is 2/7.</div>",Fractions,F,T,Addition,FALSE,F,TRUE,NA,/Users/martincz/GitHub/COGS119/group_wi26_naive_theories/analysis/../data/raw_data/p1fu5vcb0jw_1772141927155.csv,4th Year,Female,22,CBN,I think it was testing whether or not naive theories stick to scientific theories.,no,TRUE
3510,html-keyboard-response,61,56,208227,p1fu5vcb0jw,gecko,z,"<div style=""font-size:30pt;"">1/10 plus 1/10 is 1/5.</div>",Fractions,T,F,Addition,FALSE,T,TRUE,NA,/Users/martincz/GitHub/COGS119/group_wi26_naive_theories/analysis/../data/raw_data/p1fu5vcb0jw_1772141927155.csv,4th Year,Female,22,CBN,I think it was testing whether or not naive theories stick to scientific theories.,no,TRUE
1697,html-keyboard-response,62,57,210440,p1fu5vcb0jw,gecko,m,"<div style=""font-size:30pt;"">There are numbers between 10 and 10.</div>",Fractions,F,F,Infinite density,TRUE,F,TRUE,NA,/Users/martincz/GitHub/COGS119/group_wi26_naive_theories/analysis/../data/raw_data/p1fu5vcb0jw_1772141927155.csv,4th Year,Female,22,CBN,I think it was testing whether or not naive theories stick to scientific theories.,no,TRUE
2395,html-keyboard-response,63,58,213337,p1fu5vcb0jw,gecko,z,"<div style=""font-size:30pt;"">There are numbers between 1/3 and 1/2.</div>",Fractions,T,F,Infinite density,FALSE,T,TRUE,NA,/Users/martincz/GitHub/COGS119/group_wi26_naive_theories/analysis/../data/raw_data/p1fu5vcb0jw_1772141927155.csv,4th Year,Female,22,CBN,I think it was testing whether or not naive theories stick to scientific theories.,no,TRUE
5367,html-keyboard-response,64,59,219216,p1fu5vcb0jw,gecko,t,"<div style=""font-size:30pt;"">Press T if you are paying attention. Do not press z or m.</div>",Fractions,T3,T3,AttentionCheck,TRUE,T3,TRUE,NA,/Users/martincz/GitHub/COGS119/group_wi26_naive_theories/analysis/../data/raw_data/p1fu5vcb0jw_1772141927155.csv,4th Year,Female,22,CBN,I think it was testing whether or not naive theories stick to scientific theories.,no,TRUE
21350,html-keyboard-response,65,60,241071,p1fu5vcb0jw,gecko,z,"<div style=""font-size:30pt;"">All decimals are expressible as fractions.</div>",Fractions,T,T,Conversion,TRUE,T,TRUE,NA,/Users/martincz/GitHub/COGS119/group_wi26_naive_theories/analysis/../data/raw_data/p1fu5vcb0jw_1772141927155.csv,4th Year,Female,22,CBN,I think it was testing whether or not naive theories stick to scientific theories.,no,TRUE
2140,html-keyboard-response,66,61,243715,p1fu5vcb0jw,gecko,m,"<div style=""font-size:30pt;"">1/17 is greater than 16/17.</div>",Fractions,F,F,Ordering,TRUE,F,TRUE,NA,/Users/martincz/GitHub/COGS119/group_wi26_naive_theories/analysis/../data/raw_data/p1fu5vcb0jw_1772141927155.csv,4th Year,Female,22,CBN,I think it was testing whether or not naive theories stick to scientific theories.,no,TRUE
4916,html-keyboard-response,67,62,249145,p1fu5vcb0jw,gecko,z,"<div style=""font-size:30pt;"">All fractions are expressible as decimals.</div>",Fractions,F,T,Conversion,FALSE,T,FALSE,NA,/Users/martincz/GitHub/COGS119/group_wi26_naive_theories/analysis/../data/raw_data/p1fu5vcb0jw_1772141927155.csv,4th Year,Female,22,CBN,I think it was testing whether or not naive theories stick to scientific theories.,no,TRUE
1899,html-keyboard-response,68,63,251551,p1fu5vcb0jw,gecko,z,"<div style=""font-size:30pt;"">1/3 plus 1/3 is 2/3.</div>",Fractions,T,T,Addition,TRUE,T,TRUE,NA,/Users/martincz/GitHub/COGS119/group_wi26_naive_theories/analysis/../data/raw_data/p1fu5vcb0jw_1772141927155.csv,4th Year,Female,22,CBN,I think it was testing whether or not naive theories stick to scientific theories.,no,TRUE
3260,html-keyboard-response,70,64,256349,p1fu5vcb0jw,gecko,z,"<div style=""font-size:30pt;"">A moving bullet loses speed.</div>",Mechanics,T,T,Velocity,TRUE,T,TRUE,NA,/Users/martincz/GitHub/COGS119/group_wi26_naive_theories/analysis/../data/raw_data/p1fu5vcb0jw_1772141927155.csv,4th Year,Female,22,CBN,I think it was testing whether or not naive theories stick to scientific theories.,no,TRUE
1788,html-keyboard-response,71,65,258651,p1fu5vcb0jw,gecko,z,"<div style=""font-size:30pt;"">Momentum can be transferred from one object to another.</div>",Mechanics,T,T,Momentum,TRUE,T,TRUE,NA,/Users/martincz/GitHub/COGS119/group_wi26_naive_theories/analysis/../data/raw_data/p1fu5vcb0jw_1772141927155.csv,4th Year,Female,22,CBN,I think it was testing whether or not naive theories stick to scientific theories.,no,TRUE
1831,html-keyboard-response,72,66,260991,p1fu5vcb0jw,gecko,m,"<div style=""font-size:30pt;"">Heavy balls fall through air faster than light balls.</div>",Mechanics,F,T,Gravity,FALSE,F,TRUE,NA,/Users/martincz/GitHub/COGS119/group_wi26_naive_theories/analysis/../data/raw_data/p1fu5vcb0jw_1772141927155.csv,4th Year,Female,22,CBN,I think it was testing whether or not naive theories stick to scientific theories.,no,TRUE
2231,html-keyboard-response,73,67,263741,p1fu5vcb0jw,gecko,z,"<div style=""font-size:30pt;"">Constant motion requires constant force.</div>",Mechanics,F,T,Acceleration,FALSE,T,FALSE,NA,/Users/martincz/GitHub/COGS119/group_wi26_naive_theories/analysis/../data/raw_data/p1fu5vcb0jw_1772141927155.csv,4th Year,Female,22,CBN,I think it was testing whether or not naive theories stick to scientific theories.,no,TRUE
2751,html-keyboard-response,74,68,266996,p1fu5vcb0jw,gecko,z,"<div style=""font-size:30pt;"">Constant acceleration requires constant force.</div>",Mechanics,T,T,Acceleration,TRUE,T,TRUE,NA,/Users/martincz/GitHub/COGS119/group_wi26_naive_theories/analysis/../data/raw_data/p1fu5vcb0jw_1772141927155.csv,4th Year,Female,22,CBN,I think it was testing whether or not naive theories stick to scientific theories.,no,TRUE
1138,html-keyboard-response,75,69,268649,p1fu5vcb0jw,gecko,z,"<div style=""font-size:30pt;"">Forces can be strong or weak.</div>",Mechanics,T,T,Force,TRUE,T,TRUE,NA,/Users/martincz/GitHub/COGS119/group_wi26_naive_theories/analysis/../data/raw_data/p1fu5vcb0jw_1772141927155.csv,4th Year,Female,22,CBN,I think it was testing whether or not naive theories stick to scientific theories.,no,TRUE
2376,html-keyboard-response,76,70,271541,p1fu5vcb0jw,gecko,m,"<div style=""font-size:30pt;"">Bright objects fall through air faster than dark objects.</div>",Mechanics,F,F,Gravity,TRUE,F,TRUE,NA,/Users/martincz/GitHub/COGS119/group_wi26_naive_theories/analysis/../data/raw_data/p1fu5vcb0jw_1772141927155.csv,4th Year,Female,22,CBN,I think it was testing whether or not naive theories stick to scientific theories.,no,TRUE
1303,html-keyboard-response,77,71,273347,p1fu5vcb0jw,gecko,m,"<div style=""font-size:30pt;"">Forces can be straight or curved.</div>",Mechanics,F,T,Force,FALSE,F,TRUE,NA,/Users/martincz/GitHub/COGS119/group_wi26_naive_theories/analysis/../data/raw_data/p1fu5vcb0jw_1772141927155.csv,4th Year,Female,22,CBN,I think it was testing whether or not naive theories stick to scientific theories.,no,TRUE
1865,html-keyboard-response,78,72,275717,p1fu5vcb0jw,gecko,m,"<div style=""font-size:30pt;"">Pointy objects fall through air faster than flat objects.</div>",Mechanics,T,F,Gravity,FALSE,F,FALSE,NA,/Users/martincz/GitHub/COGS119/group_wi26_naive_theories/analysis/../data/raw_data/p1fu5vcb0jw_1772141927155.csv,4th Year,Female,22,CBN,I think it was testing whether or not naive theories stick to scientific theories.,no,TRUE
1560,html-keyboard-response,79,73,277779,p1fu5vcb0jw,gecko,z,"<div style=""font-size:30pt;"">Forces can be transferred from one object to another.</div>",Mechanics,F,T,Momentum,FALSE,T,FALSE,NA,/Users/martincz/GitHub/COGS119/group_wi26_naive_theories/analysis/../data/raw_data/p1fu5vcb0jw_1772141927155.csv,4th Year,Female,22,CBN,I think it was testing whether or not naive theories stick to scientific theories.,no,TRUE
2527,html-keyboard-response,80,74,280824,p1fu5vcb0jw,gecko,m,"<div style=""font-size:30pt;"">A moving bullet loses weight.</div>",Mechanics,F,F,Velocity,TRUE,F,TRUE,NA,/Users/martincz/GitHub/COGS119/group_wi26_naive_theories/analysis/../data/raw_data/p1fu5vcb0jw_1772141927155.csv,4th Year,Female,22,CBN,I think it was testing whether or not naive theories stick to scientific theories.,no,TRUE
2293,html-keyboard-response,81,75,283627,p1fu5vcb0jw,gecko,z,"<div style=""font-size:30pt;"">Forces can be balanced or unbalanced.</div>",Mechanics,T,F,Force,FALSE,T,TRUE,NA,/Users/martincz/GitHub/COGS119/group_wi26_naive_theories/analysis/../data/raw_data/p1fu5vcb0jw_1772141927155.csv,4th Year,Female,22,CBN,I think it was testing whether or not naive theories stick to scientific theories.,no,TRUE
1752,html-keyboard-response,82,76,285896,p1fu5vcb0jw,gecko,z,"<div style=""font-size:30pt;"">Energy can be transferred from one object to another.</div>",Mechanics,T,F,Momentum,FALSE,T,TRUE,NA,/Users/martincz/GitHub/COGS119/group_wi26_naive_theories/analysis/../data/raw_data/p1fu5vcb0jw_1772141927155.csv,4th Year,Female,22,CBN,I think it was testing whether or not naive theories stick to scientific theories.,no,TRUE
3410,html-keyboard-response,83,77,289822,p1fu5vcb0jw,gecko,z,"<div style=""font-size:30pt;"">Constant force can yield constant rest.</div>",Mechanics,T,F,Acceleration,FALSE,T,TRUE,NA,/Users/martincz/GitHub/COGS119/group_wi26_naive_theories/analysis/../data/raw_data/p1fu5vcb0jw_1772141927155.csv,4th Year,Female,22,CBN,I think it was testing whether or not naive theories stick to scientific theories.,no,TRUE
4245,html-keyboard-response,84,78,294573,p1fu5vcb0jw,gecko,m,"<div style=""font-size:30pt;"">Anvils fall through air faster than feathers.</div>",Mechanics,T,T,Gravity,TRUE,F,FALSE,NA,/Users/martincz/GitHub/COGS119/group_wi26_naive_theories/analysis/../data/raw_data/p1fu5vcb0jw_1772141927155.csv,4th Year,Female,22,CBN,I think it was testing whether or not naive theories stick to scientific theories.,no,TRUE
2952,html-keyboard-response,85,79,298030,p1fu5vcb0jw,gecko,t,"<div style=""font-size:30pt;"">Press T if you are paying attention. Do not press z or m.</div>",Mechanics,T3,T3,AttentionCheck,TRUE,T3,TRUE,NA,/Users/martincz/GitHub/COGS119/group_wi26_naive_theories/analysis/../data/raw_data/p1fu5vcb0jw_1772141927155.csv,4th Year,Female,22,CBN,I think it was testing whether or not naive theories stick to scientific theories.,no,TRUE
3708,html-keyboard-response,86,80,302252,p1fu5vcb0jw,gecko,z,"<div style=""font-size:30pt;"">Constant speed requires constant acceleration.</div>",Mechanics,F,F,Acceleration,TRUE,T,FALSE,NA,/Users/martincz/GitHub/COGS119/group_wi26_naive_theories/analysis/../data/raw_data/p1fu5vcb0jw_1772141927155.csv,4th Year,Female,22,CBN,I think it was testing whether or not naive theories stick to scientific theories.,no,TRUE
2130,html-keyboard-response,87,81,304891,p1fu5vcb0jw,gecko,m,"<div style=""font-size:30pt;"">Color can be transferred from one object to another.</div>",Mechanics,F,F,Momentum,TRUE,F,TRUE,NA,/Users/martincz/GitHub/COGS119/group_wi26_naive_theories/analysis/../data/raw_data/p1fu5vcb0jw_1772141927155.csv,4th Year,Female,22,CBN,I think it was testing whether or not naive theories stick to scientific theories.,no,TRUE
1418,html-keyboard-response,88,82,306813,p1fu5vcb0jw,gecko,z,"<div style=""font-size:30pt;"">A moving bullet loses force.</div>",Mechanics,F,T,Velocity,FALSE,T,FALSE,NA,/Users/martincz/GitHub/COGS119/group_wi26_naive_theories/analysis/../data/raw_data/p1fu5vcb0jw_1772141927155.csv,4th Year,Female,22,CBN,I think it was testing whether or not naive theories stick to scientific theories.,no,TRUE
1096,html-keyboard-response,89,83,308423,p1fu5vcb0jw,gecko,m,"<div style=""font-size:30pt;"">Forces can be male or female.</div>",Mechanics,F,F,Force,TRUE,F,TRUE,NA,/Users/martincz/GitHub/COGS119/group_wi26_naive_theories/analysis/../data/raw_data/p1fu5vcb0jw_1772141927155.csv,4th Year,Female,22,CBN,I think it was testing whether or not naive theories stick to scientific theories.,no,TRUE
8323,html-keyboard-response,90,84,317259,p1fu5vcb0jw,gecko,m,"<div style=""font-size:30pt;"">A moving bullet loses height.</div>",Mechanics,T,F,Velocity,FALSE,F,FALSE,NA,/Users/martincz/GitHub/COGS119/group_wi26_naive_theories/analysis/../data/raw_data/p1fu5vcb0jw_1772141927155.csv,4th Year,Female,22,CBN,I think it was testing whether or not naive theories stick to scientific theories.,no,TRUE
1387,html-keyboard-response,92,85,320232,p1fu5vcb0jw,gecko,z,"<div style=""font-size:30pt;"">Fish are alive.</div>",Physiology,T,T,Life,TRUE,T,TRUE,NA,/Users/martincz/GitHub/COGS119/group_wi26_naive_theories/analysis/../data/raw_data/p1fu5vcb0jw_1772141927155.csv,4th Year,Female,22,CBN,I think it was testing whether or not naive theories stick to scientific theories.,no,TRUE
1140,html-keyboard-response,93,86,321882,p1fu5vcb0jw,gecko,m,"<div style=""font-size:30pt;"">Screwdrivers can die.</div>",Physiology,F,F,Death,TRUE,F,TRUE,NA,/Users/martincz/GitHub/COGS119/group_wi26_naive_theories/analysis/../data/raw_data/p1fu5vcb0jw_1772141927155.csv,4th Year,Female,22,CBN,I think it was testing whether or not naive theories stick to scientific theories.,no,TRUE
1226,html-keyboard-response,94,87,323610,p1fu5vcb0jw,gecko,m,"<div style=""font-size:30pt;"">Clouds can die.</div>",Physiology,F,T,Death,FALSE,F,TRUE,NA,/Users/martincz/GitHub/COGS119/group_wi26_naive_theories/analysis/../data/raw_data/p1fu5vcb0jw_1772141927155.csv,4th Year,Female,22,CBN,I think it was testing whether or not naive theories stick to scientific theories.,no,TRUE
819,html-keyboard-response,95,88,324939,p1fu5vcb0jw,gecko,z,"<div style=""font-size:30pt;"">Coral is alive.</div>",Physiology,T,F,Life,FALSE,T,TRUE,NA,/Users/martincz/GitHub/COGS119/group_wi26_naive_theories/analysis/../data/raw_data/p1fu5vcb0jw_1772141927155.csv,4th Year,Female,22,CBN,I think it was testing whether or not naive theories stick to scientific theories.,no,TRUE
2008,html-keyboard-response,96,89,327461,p1fu5vcb0jw,gecko,z,"<div style=""font-size:30pt;"">A baby can be a niece or a nephew.</div>",Physiology,T,T,Kinship,TRUE,T,TRUE,NA,/Users/martincz/GitHub/COGS119/group_wi26_naive_theories/analysis/../data/raw_data/p1fu5vcb0jw_1772141927155.csv,4th Year,Female,22,CBN,I think it was testing whether or not naive theories stick to scientific theories.,no,TRUE
1353,html-keyboard-response,97,90,329323,p1fu5vcb0jw,gecko,z,"<div style=""font-size:30pt;"">Ferns can reproduce.</div>",Physiology,T,F,Reproduction,FALSE,T,TRUE,NA,/Users/martincz/GitHub/COGS119/group_wi26_naive_theories/analysis/../data/raw_data/p1fu5vcb0jw_1772141927155.csv,4th Year,Female,22,CBN,I think it was testing whether or not naive theories stick to scientific theories.,no,TRUE
1521,html-keyboard-response,98,91,331358,p1fu5vcb0jw,gecko,m,"<div style=""font-size:30pt;"">A baby can be a mother or a father.</div>",Physiology,F,F,Kinship,TRUE,F,TRUE,NA,/Users/martincz/GitHub/COGS119/group_wi26_naive_theories/analysis/../data/raw_data/p1fu5vcb0jw_1772141927155.csv,4th Year,Female,22,CBN,I think it was testing whether or not naive theories stick to scientific theories.,no,TRUE
1688,html-keyboard-response,99,92,333558,p1fu5vcb0jw,gecko,z,"<div style=""font-size:30pt;"">People turn food into energy.</div>",Physiology,T,T,Metabolism,TRUE,T,TRUE,NA,/Users/martincz/GitHub/COGS119/group_wi26_naive_theories/analysis/../data/raw_data/p1fu5vcb0jw_1772141927155.csv,4th Year,Female,22,CBN,I think it was testing whether or not naive theories stick to scientific theories.,no,TRUE
1187,html-keyboard-response,100,93,335248,p1fu5vcb0jw,gecko,z,"<div style=""font-size:30pt;"">Tigers can reproduce.</div>",Physiology,T,T,Reproduction,TRUE,T,TRUE,NA,/Users/martincz/GitHub/COGS119/group_wi26_naive_theories/analysis/../data/raw_data/p1fu5vcb0jw_1772141927155.csv,4th Year,Female,22,CBN,I think it was testing whether or not naive theories stick to scientific theories.,no,TRUE
1800,html-keyboard-response,101,94,337552,p1fu5vcb0jw,gecko,t,"<div style=""font-size:30pt;"">Press T if you are paying attention. Do not press z or m.</div>",Physiology,T3,T3,AttentionCheck,TRUE,T3,TRUE,NA,/Users/martincz/GitHub/COGS119/group_wi26_naive_theories/analysis/../data/raw_data/p1fu5vcb0jw_1772141927155.csv,4th Year,Female,22,CBN,I think it was testing whether or not naive theories stick to scientific theories.,no,TRUE
6758,html-keyboard-response,102,95,344819,p1fu5vcb0jw,gecko,m,"<div style=""font-size:30pt;"">Chairs can reproduce.</div>",Physiology,F,F,Reproduction,TRUE,F,TRUE,NA,/Users/martincz/GitHub/COGS119/group_wi26_naive_theories/analysis/../data/raw_data/p1fu5vcb0jw_1772141927155.csv,4th Year,Female,22,CBN,I think it was testing whether or not naive theories stick to scientific theories.,no,TRUE
3880,html-keyboard-response,103,96,349209,p1fu5vcb0jw,gecko,z,"<div style=""font-size:30pt;"">The sun is alive.</div>",Physiology,F,T,Life,FALSE,T,FALSE,NA,/Users/martincz/GitHub/COGS119/group_wi26_naive_theories/analysis/../data/raw_data/p1fu5vcb0jw_1772141927155.csv,4th Year,Female,22,CBN,I think it was testing whether or not naive theories stick to scientific theories.,no,TRUE
1697,html-keyboard-response,104,97,351417,p1fu5vcb0jw,gecko,z,"<div style=""font-size:30pt;"">A baby can be an uncle or an aunt.</div>",Physiology,T,F,Kinship,FALSE,T,TRUE,NA,/Users/martincz/GitHub/COGS119/group_wi26_naive_theories/analysis/../data/raw_data/p1fu5vcb0jw_1772141927155.csv,4th Year,Female,22,CBN,I think it was testing whether or not naive theories stick to scientific theories.,no,TRUE
1740,html-keyboard-response,105,98,353673,p1fu5vcb0jw,gecko,z,"<div style=""font-size:30pt;"">Mushrooms can die.</div>",Physiology,T,F,Death,FALSE,T,TRUE,NA,/Users/martincz/GitHub/COGS119/group_wi26_naive_theories/analysis/../data/raw_data/p1fu5vcb0jw_1772141927155.csv,4th Year,Female,22,CBN,I think it was testing whether or not naive theories stick to scientific theories.,no,TRUE
854,html-keyboard-response,106,99,355041,p1fu5vcb0jw,gecko,z,"<div style=""font-size:30pt;"">Turtles can die.</div>",Physiology,T,T,Death,TRUE,T,TRUE,NA,/Users/martincz/GitHub/COGS119/group_wi26_naive_theories/analysis/../data/raw_data/p1fu5vcb0jw_1772141927155.csv,4th Year,Female,22,CBN,I think it was testing whether or not naive theories stick to scientific theories.,no,TRUE
965,html-keyboard-response,107,100,356514,p1fu5vcb0jw,gecko,z,"<div style=""font-size:30pt;"">Plants turn food into energy.</div>",Physiology,F,T,Metabolism,FALSE,T,FALSE,NA,/Users/martincz/GitHub/COGS119/group_wi26_naive_theories/analysis/../data/raw_data/p1fu5vcb0jw_1772141927155.csv,4th Year,Female,22,CBN,I think it was testing whether or not naive theories stick to scientific theories.,no,TRUE
1404,html-keyboard-response,108,101,358434,p1fu5vcb0jw,gecko,m,"<div style=""font-size:30pt;"">Rocks turn food into energy.</div>",Physiology,F,F,Metabolism,TRUE,F,TRUE,NA,/Users/martincz/GitHub/COGS119/group_wi26_naive_theories/analysis/../data/raw_data/p1fu5vcb0jw_1772141927155.csv,4th Year,Female,22,CBN,I think it was testing whether or not naive theories stick to scientific theories.,no,TRUE
1258,html-keyboard-response,109,102,360198,p1fu5vcb0jw,gecko,z,"<div style=""font-size:30pt;"">Caterpillars can reproduce.</div>",Physiology,F,T,Reproduction,FALSE,T,FALSE,NA,/Users/martincz/GitHub/COGS119/group_wi26_naive_theories/analysis/../data/raw_data/p1fu5vcb0jw_1772141927155.csv,4th Year,Female,22,CBN,I think it was testing whether or not naive theories stick to scientific theories.,no,TRUE
944,html-keyboard-response,110,103,361656,p1fu5vcb0jw,gecko,z,"<div style=""font-size:30pt;"">Rocks are alive.</div>",Physiology,F,F,Life,TRUE,T,FALSE,NA,/Users/martincz/GitHub/COGS119/group_wi26_naive_theories/analysis/../data/raw_data/p1fu5vcb0jw_1772141927155.csv,4th Year,Female,22,CBN,I think it was testing whether or not naive theories stick to scientific theories.,no,TRUE
2023,html-keyboard-response,111,104,364193,p1fu5vcb0jw,gecko,m,"<div style=""font-size:30pt;"">A baby can be identical to an older sibling.</div>",Physiology,F,T,Kinship,FALSE,F,TRUE,NA,/Users/martincz/GitHub/COGS119/group_wi26_naive_theories/analysis/../data/raw_data/p1fu5vcb0jw_1772141927155.csv,4th Year,Female,22,CBN,I think it was testing whether or not naive theories stick to scientific theories.,no,TRUE
2476,html-keyboard-response,112,105,367171,p1fu5vcb0jw,gecko,z,"<div style=""font-size:30pt;"">Bacteria turn food into energy.</div>",Physiology,T,F,Metabolism,FALSE,T,TRUE,NA,/Users/martincz/GitHub/COGS119/group_wi26_naive_theories/analysis/../data/raw_data/p1fu5vcb0jw_1772141927155.csv,4th Year,Female,22,CBN,I think it was testing whether or not naive theories stick to scientific theories.,no,TRUE
4064,html-keyboard-response,114,106,372829,p1fu5vcb0jw,gecko,m,"<div style=""font-size:30pt;"">Cold objects transfer heat to warm objects.</div>",Thermodynamics,F,F,Heat transfer,TRUE,F,TRUE,NA,/Users/martincz/GitHub/COGS119/group_wi26_naive_theories/analysis/../data/raw_data/p1fu5vcb0jw_1772141927155.csv,4th Year,Female,22,CBN,I think it was testing whether or not naive theories stick to scientific theories.,no,TRUE
4210,html-keyboard-response,115,107,377547,p1fu5vcb0jw,gecko,z,"<div style=""font-size:30pt;"">Water transfers heat to steam.</div>",Thermodynamics,F,T,Heat transfer,FALSE,T,FALSE,NA,/Users/martincz/GitHub/COGS119/group_wi26_naive_theories/analysis/../data/raw_data/p1fu5vcb0jw_1772141927155.csv,4th Year,Female,22,CBN,I think it was testing whether or not naive theories stick to scientific theories.,no,TRUE
4869,html-keyboard-response,116,108,382919,p1fu5vcb0jw,gecko,z,"<div style=""font-size:30pt;"">Cold objects transfer heat to even colder objects.</div>",Thermodynamics,T,F,Heat transfer,FALSE,T,TRUE,NA,/Users/martincz/GitHub/COGS119/group_wi26_naive_theories/analysis/../data/raw_data/p1fu5vcb0jw_1772141927155.csv,4th Year,Female,22,CBN,I think it was testing whether or not naive theories stick to scientific theories.,no,TRUE
1296,html-keyboard-response,117,109,384725,p1fu5vcb0jw,gecko,z,"<div style=""font-size:30pt;"">Ovens produce heat.</div>",Thermodynamics,T,T,Heat source,TRUE,T,TRUE,NA,/Users/martincz/GitHub/COGS119/group_wi26_naive_theories/analysis/../data/raw_data/p1fu5vcb0jw_1772141927155.csv,4th Year,Female,22,CBN,I think it was testing whether or not naive theories stick to scientific theories.,no,TRUE
1391,html-keyboard-response,118,110,386624,p1fu5vcb0jw,gecko,m,"<div style=""font-size:30pt;"">Heat increases an object's weight.</div>",Thermodynamics,F,T,Thermal expansion,FALSE,F,TRUE,NA,/Users/martincz/GitHub/COGS119/group_wi26_naive_theories/analysis/../data/raw_data/p1fu5vcb0jw_1772141927155.csv,4th Year,Female,22,CBN,I think it was testing whether or not naive theories stick to scientific theories.,no,TRUE
1597,html-keyboard-response,119,111,388730,p1fu5vcb0jw,gecko,m,"<div style=""font-size:30pt;"">Heat increases an object's color.</div>",Thermodynamics,F,F,Thermal expansion,TRUE,F,TRUE,NA,/Users/martincz/GitHub/COGS119/group_wi26_naive_theories/analysis/../data/raw_data/p1fu5vcb0jw_1772141927155.csv,4th Year,Female,22,CBN,I think it was testing whether or not naive theories stick to scientific theories.,no,TRUE
1698,html-keyboard-response,120,112,390937,p1fu5vcb0jw,gecko,z,"<div style=""font-size:30pt;"">The sun has heat.</div>",Thermodynamics,T,T,Heat,TRUE,T,TRUE,NA,/Users/martincz/GitHub/COGS119/group_wi26_naive_theories/analysis/../data/raw_data/p1fu5vcb0jw_1772141927155.csv,4th Year,Female,22,CBN,I think it was testing whether or not naive theories stick to scientific theories.,no,TRUE
1723,html-keyboard-response,121,113,393172,p1fu5vcb0jw,gecko,z,"<div style=""font-size:30pt;"">Ice has a lower temperature than water.</div>",Thermodynamics,T,T,Temperature,TRUE,T,TRUE,NA,/Users/martincz/GitHub/COGS119/group_wi26_naive_theories/analysis/../data/raw_data/p1fu5vcb0jw_1772141927155.csv,4th Year,Female,22,CBN,I think it was testing whether or not naive theories stick to scientific theories.,no,TRUE
1649,html-keyboard-response,122,114,395333,p1fu5vcb0jw,gecko,t,"<div style=""font-size:30pt;"">Press T if you are paying attention. Do not press z or m.</div>",Thermodynamics,T3,T3,AttentionCheck,TRUE,T3,TRUE,NA,/Users/martincz/GitHub/COGS119/group_wi26_naive_theories/analysis/../data/raw_data/p1fu5vcb0jw_1772141927155.csv,4th Year,Female,22,CBN,I think it was testing whether or not naive theories stick to scientific theories.,no,TRUE
