success,rt,trial_type,trial_index,plugin_version,time_elapsed,random_id,participant_id,response,stimulus,category,correct_response,naive_theory,concept,is_consistent,response_tf,correct,question_order,file_name
TRUE,1177,fullscreen,0,null,2181,p1f870lr3ad,frog,NA,NA,NA,NA,NA,NA,NA,NA,NA,NA,/Users/martincz/GitHub/COGS119/group_wi26_naive_theories/analysis/../data/raw_data/p1f870lr3ad_1772139911965.csv
NA,1749,survey-text,1,2.0.0,3934,p1f870lr3ad,frog,"{""participant_id"":""frog""}",NA,NA,NA,NA,NA,NA,NA,NA,NA,/Users/martincz/GitHub/COGS119/group_wi26_naive_theories/analysis/../data/raw_data/p1f870lr3ad_1772139911965.csv
NA,11699,html-keyboard-response,2,2.0.0,15636,p1f870lr3ad,frog,NA,<p>Welcome to the experiment.<br><br>You will see 140 statements about various topics.<br><br>Please read the statements and respond with whether you think they are <b>true (Z key)</b> or <b>false (M key)</b> as quickly as possible!<br><br>Press any key to begin.</p>,NA,NA,NA,NA,NA,NA,NA,NA,/Users/martincz/GitHub/COGS119/group_wi26_naive_theories/analysis/../data/raw_data/p1f870lr3ad_1772139911965.csv
NA,2421,html-keyboard-response,3,2.0.0,18058,p1f870lr3ad,frog,NA,<p>The next 20 statements will be about <b>Fractions</b>. Press any key to continue.</p>,NA,NA,NA,NA,NA,NA,NA,NA,/Users/martincz/GitHub/COGS119/group_wi26_naive_theories/analysis/../data/raw_data/p1f870lr3ad_1772139911965.csv
NA,4506,html-keyboard-response,4,2.0.0,22567,p1f870lr3ad,frog,m,"<div style=""font-size:30pt;"">1/3 plus 1/3 is 1/3.</div>",Fractions,F,F,Addition,TRUE,F,TRUE,NA,/Users/martincz/GitHub/COGS119/group_wi26_naive_theories/analysis/../data/raw_data/p1f870lr3ad_1772139911965.csv
NA,4198,html-keyboard-response,5,2.0.0,27268,p1f870lr3ad,frog,t,"<div style=""font-size:30pt;"">Press T if you are paying attention. Do not press z or m.</div>",Fractions,T3,T3,AttentionCheck,TRUE,T3,TRUE,NA,/Users/martincz/GitHub/COGS119/group_wi26_naive_theories/analysis/../data/raw_data/p1f870lr3ad_1772139911965.csv
NA,6131,html-keyboard-response,6,2.0.0,33901,p1f870lr3ad,frog,m,"<div style=""font-size:30pt;"">There are numbers between 1/10 and 10/100.</div>",Fractions,F,T,Infinite density,FALSE,F,TRUE,NA,/Users/martincz/GitHub/COGS119/group_wi26_naive_theories/analysis/../data/raw_data/p1f870lr3ad_1772139911965.csv
NA,2948,html-keyboard-response,7,2.0.0,37352,p1f870lr3ad,frog,z,"<div style=""font-size:30pt;"">1/3 plus 1/3 is 2/3.</div>",Fractions,T,T,Addition,TRUE,T,TRUE,NA,/Users/martincz/GitHub/COGS119/group_wi26_naive_theories/analysis/../data/raw_data/p1f870lr3ad_1772139911965.csv
NA,3507,html-keyboard-response,8,2.0.0,41361,p1f870lr3ad,frog,m,"<div style=""font-size:30pt;"">All fractions are expressible as integers.</div>",Fractions,F,F,Conversion,TRUE,F,TRUE,NA,/Users/martincz/GitHub/COGS119/group_wi26_naive_theories/analysis/../data/raw_data/p1f870lr3ad_1772139911965.csv
NA,4019,html-keyboard-response,9,2.0.0,45884,p1f870lr3ad,frog,m,"<div style=""font-size:30pt;"">2/3 plus 2/4 is 2/7.</div>",Fractions,F,T,Addition,FALSE,F,TRUE,NA,/Users/martincz/GitHub/COGS119/group_wi26_naive_theories/analysis/../data/raw_data/p1f870lr3ad_1772139911965.csv
NA,2818,html-keyboard-response,10,2.0.0,49205,p1f870lr3ad,frog,m,"<div style=""font-size:30pt;"">1/17 is greater than 16/17.</div>",Fractions,F,F,Ordering,TRUE,F,TRUE,NA,/Users/martincz/GitHub/COGS119/group_wi26_naive_theories/analysis/../data/raw_data/p1f870lr3ad_1772139911965.csv
NA,4758,html-keyboard-response,11,2.0.0,54465,p1f870lr3ad,frog,z,"<div style=""font-size:30pt;"">4 divided by 2/1 is 2.</div>",Fractions,T,T,Division,TRUE,T,TRUE,NA,/Users/martincz/GitHub/COGS119/group_wi26_naive_theories/analysis/../data/raw_data/p1f870lr3ad_1772139911965.csv
NA,6270,html-keyboard-response,12,2.0.0,61238,p1f870lr3ad,frog,m,"<div style=""font-size:30pt;"">8 divided by 1/2 is 4.</div>",Fractions,F,T,Division,FALSE,F,TRUE,NA,/Users/martincz/GitHub/COGS119/group_wi26_naive_theories/analysis/../data/raw_data/p1f870lr3ad_1772139911965.csv
NA,11820,html-keyboard-response,13,2.0.0,73560,p1f870lr3ad,frog,m,"<div style=""font-size:30pt;"">8 divided by 2/1 is 3.</div>",Fractions,F,F,Division,TRUE,F,TRUE,NA,/Users/martincz/GitHub/COGS119/group_wi26_naive_theories/analysis/../data/raw_data/p1f870lr3ad_1772139911965.csv
NA,4138,html-keyboard-response,14,2.0.0,78200,p1f870lr3ad,frog,z,"<div style=""font-size:30pt;"">1/10 plus 1/10 is 1/5.</div>",Fractions,T,F,Addition,FALSE,T,TRUE,NA,/Users/martincz/GitHub/COGS119/group_wi26_naive_theories/analysis/../data/raw_data/p1f870lr3ad_1772139911965.csv
NA,4538,html-keyboard-response,15,2.0.0,83240,p1f870lr3ad,frog,z,"<div style=""font-size:30pt;"">All integers are expressible as fractions.</div>",Fractions,T,F,Conversion,FALSE,T,TRUE,NA,/Users/martincz/GitHub/COGS119/group_wi26_naive_theories/analysis/../data/raw_data/p1f870lr3ad_1772139911965.csv
NA,3376,html-keyboard-response,16,2.0.0,87118,p1f870lr3ad,frog,m,"<div style=""font-size:30pt;"">There are numbers between 10 and 10.</div>",Fractions,F,F,Infinite density,TRUE,F,TRUE,NA,/Users/martincz/GitHub/COGS119/group_wi26_naive_theories/analysis/../data/raw_data/p1f870lr3ad_1772139911965.csv
NA,1531,html-keyboard-response,17,2.0.0,89151,p1f870lr3ad,frog,z,"<div style=""font-size:30pt;"">There are numbers between 1 and 3.</div>",Fractions,T,T,Infinite density,TRUE,T,TRUE,NA,/Users/martincz/GitHub/COGS119/group_wi26_naive_theories/analysis/../data/raw_data/p1f870lr3ad_1772139911965.csv
NA,8803,html-keyboard-response,18,2.0.0,98456,p1f870lr3ad,frog,z,"<div style=""font-size:30pt;"">All decimals are expressible as fractions.</div>",Fractions,T,T,Conversion,TRUE,T,TRUE,NA,/Users/martincz/GitHub/COGS119/group_wi26_naive_theories/analysis/../data/raw_data/p1f870lr3ad_1772139911965.csv
NA,3506,html-keyboard-response,19,2.0.0,102465,p1f870lr3ad,frog,z,"<div style=""font-size:30pt;"">12/13 is greater than 1/13.</div>",Fractions,T,T,Ordering,TRUE,T,TRUE,NA,/Users/martincz/GitHub/COGS119/group_wi26_naive_theories/analysis/../data/raw_data/p1f870lr3ad_1772139911965.csv
NA,3718,html-keyboard-response,20,2.0.0,106685,p1f870lr3ad,frog,z,"<div style=""font-size:30pt;"">4 divided by 1/2 is 8.</div>",Fractions,T,F,Division,FALSE,T,TRUE,NA,/Users/martincz/GitHub/COGS119/group_wi26_naive_theories/analysis/../data/raw_data/p1f870lr3ad_1772139911965.csv
NA,3633,html-keyboard-response,21,2.0.0,110820,p1f870lr3ad,frog,z,"<div style=""font-size:30pt;"">All fractions are expressible as decimals.</div>",Fractions,F,T,Conversion,FALSE,T,FALSE,NA,/Users/martincz/GitHub/COGS119/group_wi26_naive_theories/analysis/../data/raw_data/p1f870lr3ad_1772139911965.csv
NA,2494,html-keyboard-response,22,2.0.0,113817,p1f870lr3ad,frog,m,"<div style=""font-size:30pt;"">1/17 is greater than 1/9.</div>",Fractions,F,T,Ordering,FALSE,F,TRUE,NA,/Users/martincz/GitHub/COGS119/group_wi26_naive_theories/analysis/../data/raw_data/p1f870lr3ad_1772139911965.csv
NA,5305,html-keyboard-response,23,2.0.0,119625,p1f870lr3ad,frog,z,"<div style=""font-size:30pt;"">There are numbers between 1/3 and 1/2.</div>",Fractions,T,F,Infinite density,FALSE,T,TRUE,NA,/Users/martincz/GitHub/COGS119/group_wi26_naive_theories/analysis/../data/raw_data/p1f870lr3ad_1772139911965.csv
NA,3825,html-keyboard-response,24,2.0.0,123952,p1f870lr3ad,frog,z,"<div style=""font-size:30pt;"">1/13 is greater than 1/30.</div>",Fractions,T,F,Ordering,FALSE,T,TRUE,NA,/Users/martincz/GitHub/COGS119/group_wi26_naive_theories/analysis/../data/raw_data/p1f870lr3ad_1772139911965.csv
NA,1765,html-keyboard-response,25,2.0.0,126220,p1f870lr3ad,frog,NA,<p>The next 20 statements will be about <b>Matter</b>. Press any key to continue.</p>,NA,NA,NA,NA,NA,NA,NA,NA,/Users/martincz/GitHub/COGS119/group_wi26_naive_theories/analysis/../data/raw_data/p1f870lr3ad_1772139911965.csv
NA,2786,html-keyboard-response,26,2.0.0,129008,p1f870lr3ad,frog,z,"<div style=""font-size:30pt;"">A grain of sand can be cut in half.</div>",Matter,T,F,Divisibility,FALSE,T,TRUE,NA,/Users/martincz/GitHub/COGS119/group_wi26_naive_theories/analysis/../data/raw_data/p1f870lr3ad_1772139911965.csv
NA,2473,html-keyboard-response,27,2.0.0,131982,p1f870lr3ad,frog,z,"<div style=""font-size:30pt;"">Atoms are the constituents of matter.</div>",Matter,T,T,Atom,TRUE,T,TRUE,NA,/Users/martincz/GitHub/COGS119/group_wi26_naive_theories/analysis/../data/raw_data/p1f870lr3ad_1772139911965.csv
NA,5756,html-keyboard-response,28,2.0.0,138241,p1f870lr3ad,frog,m,"<div style=""font-size:30pt;"">A pound of steel weighs more than a ton of steel.</div>",Matter,F,F,Weight,TRUE,F,TRUE,NA,/Users/martincz/GitHub/COGS119/group_wi26_naive_theories/analysis/../data/raw_data/p1f870lr3ad_1772139911965.csv
NA,4129,html-keyboard-response,29,2.0.0,142872,p1f870lr3ad,frog,z,"<div style=""font-size:30pt;"">A liter of water weighs more than a liter of air.</div>",Matter,T,T,Weight,TRUE,T,TRUE,NA,/Users/martincz/GitHub/COGS119/group_wi26_naive_theories/analysis/../data/raw_data/p1f870lr3ad_1772139911965.csv
NA,5967,html-keyboard-response,30,2.0.0,149342,p1f870lr3ad,frog,z,"<div style=""font-size:30pt;"">Air is composed of matter.</div>",Matter,T,F,Mass,FALSE,T,TRUE,NA,/Users/martincz/GitHub/COGS119/group_wi26_naive_theories/analysis/../data/raw_data/p1f870lr3ad_1772139911965.csv
NA,1756,html-keyboard-response,31,2.0.0,151599,p1f870lr3ad,frog,z,"<div style=""font-size:30pt;"">Fire is composed of matter.</div>",Matter,F,T,Mass,FALSE,T,FALSE,NA,/Users/martincz/GitHub/COGS119/group_wi26_naive_theories/analysis/../data/raw_data/p1f870lr3ad_1772139911965.csv
NA,2798,html-keyboard-response,32,2.0.0,154900,p1f870lr3ad,frog,m,"<div style=""font-size:30pt;"">A pound of steel weighs more than a pound of feathers.</div>",Matter,F,T,Weight,FALSE,F,TRUE,NA,/Users/martincz/GitHub/COGS119/group_wi26_naive_theories/analysis/../data/raw_data/p1f870lr3ad_1772139911965.csv
NA,4198,html-keyboard-response,33,2.0.0,159600,p1f870lr3ad,frog,m,"<div style=""font-size:30pt;"">An idea can be cut in half.</div>",Matter,F,F,Divisibility,TRUE,F,TRUE,NA,/Users/martincz/GitHub/COGS119/group_wi26_naive_theories/analysis/../data/raw_data/p1f870lr3ad_1772139911965.csv
NA,5604,html-keyboard-response,34,2.0.0,165706,p1f870lr3ad,frog,z,"<div style=""font-size:30pt;"">Foam is denser than brick.</div>",Matter,F,F,Density,TRUE,T,FALSE,NA,/Users/martincz/GitHub/COGS119/group_wi26_naive_theories/analysis/../data/raw_data/p1f870lr3ad_1772139911965.csv
NA,2910,html-keyboard-response,35,2.0.0,169118,p1f870lr3ad,frog,z,"<div style=""font-size:30pt;"">Ice is denser than water.</div>",Matter,F,T,Density,FALSE,T,FALSE,NA,/Users/martincz/GitHub/COGS119/group_wi26_naive_theories/analysis/../data/raw_data/p1f870lr3ad_1772139911965.csv
NA,4348,html-keyboard-response,36,2.0.0,173969,p1f870lr3ad,frog,m,"<div style=""font-size:30pt;"">A cold penny is denser than a hot penny.</div>",Matter,T,F,Density,FALSE,F,FALSE,NA,/Users/martincz/GitHub/COGS119/group_wi26_naive_theories/analysis/../data/raw_data/p1f870lr3ad_1772139911965.csv
NA,2816,html-keyboard-response,37,2.0.0,177287,p1f870lr3ad,frog,z,"<div style=""font-size:30pt;"">Atoms are visible to the naked eye.</div>",Matter,F,F,Atom,TRUE,T,FALSE,NA,/Users/martincz/GitHub/COGS119/group_wi26_naive_theories/analysis/../data/raw_data/p1f870lr3ad_1772139911965.csv
NA,1823,html-keyboard-response,38,2.0.0,179612,p1f870lr3ad,frog,m,"<div style=""font-size:30pt;"">Atoms are mostly empty space.</div>",Matter,T,F,Atom,FALSE,F,FALSE,NA,/Users/martincz/GitHub/COGS119/group_wi26_naive_theories/analysis/../data/raw_data/p1f870lr3ad_1772139911965.csv
NA,5813,html-keyboard-response,39,2.0.0,185927,p1f870lr3ad,frog,z,"<div style=""font-size:30pt;"">Steel is denser than foam.</div>",Matter,T,T,Density,TRUE,T,TRUE,NA,/Users/martincz/GitHub/COGS119/group_wi26_naive_theories/analysis/../data/raw_data/p1f870lr3ad_1772139911965.csv
NA,1678,html-keyboard-response,40,2.0.0,188108,p1f870lr3ad,frog,z,"<div style=""font-size:30pt;"">Rocks are composed of matter.</div>",Matter,T,T,Mass,TRUE,T,TRUE,NA,/Users/martincz/GitHub/COGS119/group_wi26_naive_theories/analysis/../data/raw_data/p1f870lr3ad_1772139911965.csv
NA,2138,html-keyboard-response,41,2.0.0,190750,p1f870lr3ad,frog,m,"<div style=""font-size:30pt;"">Atoms are weightless.</div>",Matter,F,T,Atom,FALSE,F,TRUE,NA,/Users/martincz/GitHub/COGS119/group_wi26_naive_theories/analysis/../data/raw_data/p1f870lr3ad_1772139911965.csv
NA,3940,html-keyboard-response,42,2.0.0,195191,p1f870lr3ad,frog,z,"<div style=""font-size:30pt;"">Numbers are composed of matter.</div>",Matter,F,F,Mass,TRUE,T,FALSE,NA,/Users/martincz/GitHub/COGS119/group_wi26_naive_theories/analysis/../data/raw_data/p1f870lr3ad_1772139911965.csv
NA,1959,html-keyboard-response,43,2.0.0,197654,p1f870lr3ad,frog,m,"<div style=""font-size:30pt;"">A shadow can be cut in half.</div>",Matter,F,T,Divisibility,FALSE,F,TRUE,NA,/Users/martincz/GitHub/COGS119/group_wi26_naive_theories/analysis/../data/raw_data/p1f870lr3ad_1772139911965.csv
NA,1794,html-keyboard-response,44,2.0.0,199951,p1f870lr3ad,frog,t,"<div style=""font-size:30pt;"">Press T if you are paying attention. Do not press z or m.</div>",Matter,T3,T3,AttentionCheck,TRUE,T3,TRUE,NA,/Users/martincz/GitHub/COGS119/group_wi26_naive_theories/analysis/../data/raw_data/p1f870lr3ad_1772139911965.csv
NA,2075,html-keyboard-response,45,2.0.0,202528,p1f870lr3ad,frog,z,"<div style=""font-size:30pt;"">A log can be cut in half.</div>",Matter,T,T,Divisibility,TRUE,T,TRUE,NA,/Users/martincz/GitHub/COGS119/group_wi26_naive_theories/analysis/../data/raw_data/p1f870lr3ad_1772139911965.csv
NA,2638,html-keyboard-response,46,2.0.0,205668,p1f870lr3ad,frog,m,"<div style=""font-size:30pt;"">A liter of water weighs more than a liter of ice.</div>",Matter,T,F,Weight,FALSE,F,FALSE,NA,/Users/martincz/GitHub/COGS119/group_wi26_naive_theories/analysis/../data/raw_data/p1f870lr3ad_1772139911965.csv
NA,1802,html-keyboard-response,47,2.0.0,207972,p1f870lr3ad,frog,NA,<p>The next 20 statements will be about <b>Waves</b>. Press any key to continue.</p>,NA,NA,NA,NA,NA,NA,NA,NA,/Users/martincz/GitHub/COGS119/group_wi26_naive_theories/analysis/../data/raw_data/p1f870lr3ad_1772139911965.csv
NA,13570,html-keyboard-response,48,2.0.0,221543,p1f870lr3ad,frog,m,"<div style=""font-size:30pt;"">Red objects absorb blue light.</div>",Waves,T,F,Color,FALSE,F,FALSE,NA,/Users/martincz/GitHub/COGS119/group_wi26_naive_theories/analysis/../data/raw_data/p1f870lr3ad_1772139911965.csv
NA,6165,html-keyboard-response,49,2.0.0,228211,p1f870lr3ad,frog,z,"<div style=""font-size:30pt;"">Sound travels through metal.</div>",Waves,T,F,Propagation,FALSE,T,TRUE,NA,/Users/martincz/GitHub/COGS119/group_wi26_naive_theories/analysis/../data/raw_data/p1f870lr3ad_1772139911965.csv
NA,3349,html-keyboard-response,50,2.0.0,232063,p1f870lr3ad,frog,m,"<div style=""font-size:30pt;"">Black objects reflect all colors of light.</div>",Waves,F,T,Light,FALSE,F,TRUE,NA,/Users/martincz/GitHub/COGS119/group_wi26_naive_theories/analysis/../data/raw_data/p1f870lr3ad_1772139911965.csv
NA,3431,html-keyboard-response,51,2.0.0,235997,p1f870lr3ad,frog,m,"<div style=""font-size:30pt;"">Mirrors reflect sound.</div>",Waves,T,F,Reflection,FALSE,F,FALSE,NA,/Users/martincz/GitHub/COGS119/group_wi26_naive_theories/analysis/../data/raw_data/p1f870lr3ad_1772139911965.csv
NA,1702,html-keyboard-response,52,2.0.0,238201,p1f870lr3ad,frog,m,"<div style=""font-size:30pt;"">Foam reflects sound.</div>",Waves,F,F,Reflection,TRUE,F,TRUE,NA,/Users/martincz/GitHub/COGS119/group_wi26_naive_theories/analysis/../data/raw_data/p1f870lr3ad_1772139911965.csv
NA,1911,html-keyboard-response,53,2.0.0,240614,p1f870lr3ad,frog,m,"<div style=""font-size:30pt;"">Sound travels through foam.</div>",Waves,F,F,Propagation,TRUE,F,TRUE,NA,/Users/martincz/GitHub/COGS119/group_wi26_naive_theories/analysis/../data/raw_data/p1f870lr3ad_1772139911965.csv
NA,2327,html-keyboard-response,54,2.0.0,243442,p1f870lr3ad,frog,z,"<div style=""font-size:30pt;"">Sounds can be loud or quiet.</div>",Waves,T,T,Sound,TRUE,T,TRUE,NA,/Users/martincz/GitHub/COGS119/group_wi26_naive_theories/analysis/../data/raw_data/p1f870lr3ad_1772139911965.csv
NA,1598,html-keyboard-response,55,2.0.0,245543,p1f870lr3ad,frog,z,"<div style=""font-size:30pt;"">Red objects reflect red light.</div>",Waves,T,T,Color,TRUE,T,TRUE,NA,/Users/martincz/GitHub/COGS119/group_wi26_naive_theories/analysis/../data/raw_data/p1f870lr3ad_1772139911965.csv
NA,3590,html-keyboard-response,56,2.0.0,249636,p1f870lr3ad,frog,z,"<div style=""font-size:30pt;"">White light contains all colors of light.</div>",Waves,T,F,Light,FALSE,T,TRUE,NA,/Users/martincz/GitHub/COGS119/group_wi26_naive_theories/analysis/../data/raw_data/p1f870lr3ad_1772139911965.csv
NA,1448,html-keyboard-response,57,2.0.0,251585,p1f870lr3ad,frog,z,"<div style=""font-size:30pt;"">Prisms reflect light.</div>",Waves,F,T,Reflection,FALSE,T,FALSE,NA,/Users/martincz/GitHub/COGS119/group_wi26_naive_theories/analysis/../data/raw_data/p1f870lr3ad_1772139911965.csv
NA,1456,html-keyboard-response,58,2.0.0,253543,p1f870lr3ad,frog,z,"<div style=""font-size:30pt;"">Sounds can be near or far.</div>",Waves,F,T,Sound,FALSE,T,FALSE,NA,/Users/martincz/GitHub/COGS119/group_wi26_naive_theories/analysis/../data/raw_data/p1f870lr3ad_1772139911965.csv
NA,1142,html-keyboard-response,59,2.0.0,255188,p1f870lr3ad,frog,z,"<div style=""font-size:30pt;"">Red objects absorb red light.</div>",Waves,F,T,Color,FALSE,T,FALSE,NA,/Users/martincz/GitHub/COGS119/group_wi26_naive_theories/analysis/../data/raw_data/p1f870lr3ad_1772139911965.csv
NA,2095,html-keyboard-response,60,2.0.0,257785,p1f870lr3ad,frog,z,"<div style=""font-size:30pt;"">Sound travels through air.</div>",Waves,T,T,Propagation,TRUE,T,TRUE,NA,/Users/martincz/GitHub/COGS119/group_wi26_naive_theories/analysis/../data/raw_data/p1f870lr3ad_1772139911965.csv
NA,1446,html-keyboard-response,61,2.0.0,259733,p1f870lr3ad,frog,z,"<div style=""font-size:30pt;"">Mirrors reflect light.</div>",Waves,T,T,Reflection,TRUE,T,TRUE,NA,/Users/martincz/GitHub/COGS119/group_wi26_naive_theories/analysis/../data/raw_data/p1f870lr3ad_1772139911965.csv
NA,1473,html-keyboard-response,62,2.0.0,261709,p1f870lr3ad,frog,m,"<div style=""font-size:30pt;"">Red objects reflect blue light.</div>",Waves,F,F,Color,TRUE,F,TRUE,NA,/Users/martincz/GitHub/COGS119/group_wi26_naive_theories/analysis/../data/raw_data/p1f870lr3ad_1772139911965.csv
NA,4560,html-keyboard-response,63,2.0.0,266772,p1f870lr3ad,frog,m,"<div style=""font-size:30pt;"">Sound travels through a vacuum.</div>",Waves,F,T,Propagation,FALSE,F,TRUE,NA,/Users/martincz/GitHub/COGS119/group_wi26_naive_theories/analysis/../data/raw_data/p1f870lr3ad_1772139911965.csv
NA,4044,html-keyboard-response,64,2.0.0,271318,p1f870lr3ad,frog,z,"<div style=""font-size:30pt;"">Rainbows contain all colors of light.</div>",Waves,T,T,Light,TRUE,T,TRUE,NA,/Users/martincz/GitHub/COGS119/group_wi26_naive_theories/analysis/../data/raw_data/p1f870lr3ad_1772139911965.csv
NA,1652,html-keyboard-response,65,2.0.0,273473,p1f870lr3ad,frog,m,"<div style=""font-size:30pt;"">Sounds can be dead or alive.</div>",Waves,F,F,Sound,TRUE,F,TRUE,NA,/Users/martincz/GitHub/COGS119/group_wi26_naive_theories/analysis/../data/raw_data/p1f870lr3ad_1772139911965.csv
NA,1962,html-keyboard-response,66,2.0.0,275938,p1f870lr3ad,frog,m,"<div style=""font-size:30pt;"">Shadows contain all colors of light.</div>",Waves,F,F,Light,TRUE,F,TRUE,NA,/Users/martincz/GitHub/COGS119/group_wi26_naive_theories/analysis/../data/raw_data/p1f870lr3ad_1772139911965.csv
NA,1904,html-keyboard-response,67,2.0.0,278344,p1f870lr3ad,frog,z,"<div style=""font-size:30pt;"">Sounds can be direct or reflected.</div>",Waves,T,F,Sound,FALSE,T,TRUE,NA,/Users/martincz/GitHub/COGS119/group_wi26_naive_theories/analysis/../data/raw_data/p1f870lr3ad_1772139911965.csv
NA,1651,html-keyboard-response,68,2.0.0,280498,p1f870lr3ad,frog,t,"<div style=""font-size:30pt;"">Press T if you are paying attention. Do not press z or m.</div>",Waves,T3,T3,AttentionCheck,TRUE,T3,TRUE,NA,/Users/martincz/GitHub/COGS119/group_wi26_naive_theories/analysis/../data/raw_data/p1f870lr3ad_1772139911965.csv
NA,1619,html-keyboard-response,69,2.0.0,282618,p1f870lr3ad,frog,NA,<p>The next 20 statements will be about <b>Astronomy</b>. Press any key to continue.</p>,NA,NA,NA,NA,NA,NA,NA,NA,/Users/martincz/GitHub/COGS119/group_wi26_naive_theories/analysis/../data/raw_data/p1f870lr3ad_1772139911965.csv
NA,3442,html-keyboard-response,70,2.0.0,286062,p1f870lr3ad,frog,m,"<div style=""font-size:30pt;"">The sun revolves around the moon.</div>",Astronomy,F,F,Solar system,TRUE,F,TRUE,NA,/Users/martincz/GitHub/COGS119/group_wi26_naive_theories/analysis/../data/raw_data/p1f870lr3ad_1772139911965.csv
NA,2121,html-keyboard-response,71,2.0.0,288686,p1f870lr3ad,frog,z,"<div style=""font-size:30pt;"">The earth revolves around the sun.</div>",Astronomy,T,F,Solar system,FALSE,T,TRUE,NA,/Users/martincz/GitHub/COGS119/group_wi26_naive_theories/analysis/../data/raw_data/p1f870lr3ad_1772139911965.csv
NA,3868,html-keyboard-response,72,2.0.0,293056,p1f870lr3ad,frog,z,"<div style=""font-size:30pt;"">The earth's rotation causes the seasons.</div>",Astronomy,F,F,Season,TRUE,T,FALSE,NA,/Users/martincz/GitHub/COGS119/group_wi26_naive_theories/analysis/../data/raw_data/p1f870lr3ad_1772139911965.csv
NA,11079,html-keyboard-response,73,2.0.0,304637,p1f870lr3ad,frog,z,"<div style=""font-size:30pt;"">A change in overall sunlight causes the seasons.</div>",Astronomy,T,T,Season,TRUE,T,TRUE,NA,/Users/martincz/GitHub/COGS119/group_wi26_naive_theories/analysis/../data/raw_data/p1f870lr3ad_1772139911965.csv
NA,17055,html-keyboard-response,74,2.0.0,322194,p1f870lr3ad,frog,m,"<div style=""font-size:30pt;"">Phases of the moon are caused by the earth's shadow.</div>",Astronomy,F,T,Lunar phase,FALSE,F,TRUE,NA,/Users/martincz/GitHub/COGS119/group_wi26_naive_theories/analysis/../data/raw_data/p1f870lr3ad_1772139911965.csv
NA,1894,html-keyboard-response,75,2.0.0,324591,p1f870lr3ad,frog,z,"<div style=""font-size:30pt;"">The sun produces light.</div>",Astronomy,T,T,Star,TRUE,T,TRUE,NA,/Users/martincz/GitHub/COGS119/group_wi26_naive_theories/analysis/../data/raw_data/p1f870lr3ad_1772139911965.csv
NA,2383,html-keyboard-response,76,2.0.0,327476,p1f870lr3ad,frog,z,"<div style=""font-size:30pt;"">The earth's tilt causes the seasons.</div>",Astronomy,T,F,Season,FALSE,T,TRUE,NA,/Users/martincz/GitHub/COGS119/group_wi26_naive_theories/analysis/../data/raw_data/p1f870lr3ad_1772139911965.csv
NA,8997,html-keyboard-response,77,2.0.0,336976,p1f870lr3ad,frog,m,"<div style=""font-size:30pt;"">Planets are more massive than stars.</div>",Astronomy,F,T,Planet,FALSE,F,TRUE,NA,/Users/martincz/GitHub/COGS119/group_wi26_naive_theories/analysis/../data/raw_data/p1f870lr3ad_1772139911965.csv
NA,2983,html-keyboard-response,78,2.0.0,340461,p1f870lr3ad,frog,z,"<div style=""font-size:30pt;"">Phases of the moon are caused by changes in illumination.</div>",Astronomy,T,T,Lunar phase,TRUE,T,TRUE,NA,/Users/martincz/GitHub/COGS119/group_wi26_naive_theories/analysis/../data/raw_data/p1f870lr3ad_1772139911965.csv
NA,1698,html-keyboard-response,79,2.0.0,342661,p1f870lr3ad,frog,z,"<div style=""font-size:30pt;"">The moon revolves around the earth.</div>",Astronomy,T,T,Solar system,TRUE,T,TRUE,NA,/Users/martincz/GitHub/COGS119/group_wi26_naive_theories/analysis/../data/raw_data/p1f870lr3ad_1772139911965.csv
NA,5913,html-keyboard-response,80,2.0.0,349077,p1f870lr3ad,frog,m,"<div style=""font-size:30pt;"">Stars are more massive than planets.</div>",Astronomy,T,F,Planet,FALSE,F,FALSE,NA,/Users/martincz/GitHub/COGS119/group_wi26_naive_theories/analysis/../data/raw_data/p1f870lr3ad_1772139911965.csv
NA,4298,html-keyboard-response,81,2.0.0,353877,p1f870lr3ad,frog,m,"<div style=""font-size:30pt;"">Asteroids are more massive than planets.</div>",Astronomy,F,F,Planet,TRUE,F,TRUE,NA,/Users/martincz/GitHub/COGS119/group_wi26_naive_theories/analysis/../data/raw_data/p1f870lr3ad_1772139911965.csv
NA,3211,html-keyboard-response,82,2.0.0,357590,p1f870lr3ad,frog,m,"<div style=""font-size:30pt;"">The sun produces gravity.</div>",Astronomy,T,F,Star,FALSE,F,FALSE,NA,/Users/martincz/GitHub/COGS119/group_wi26_naive_theories/analysis/../data/raw_data/p1f870lr3ad_1772139911965.csv
NA,7072,html-keyboard-response,83,2.0.0,365165,p1f870lr3ad,frog,m,"<div style=""font-size:30pt;"">The earth's distance from the sun causes the seasons.</div>",Astronomy,F,T,Season,FALSE,F,TRUE,NA,/Users/martincz/GitHub/COGS119/group_wi26_naive_theories/analysis/../data/raw_data/p1f870lr3ad_1772139911965.csv
NA,1639,html-keyboard-response,84,2.0.0,367307,p1f870lr3ad,frog,t,"<div style=""font-size:30pt;"">Press T if you are paying attention. Do not press z or m.</div>",Astronomy,T3,T3,AttentionCheck,TRUE,T3,TRUE,NA,/Users/martincz/GitHub/COGS119/group_wi26_naive_theories/analysis/../data/raw_data/p1f870lr3ad_1772139911965.csv
NA,4667,html-keyboard-response,85,2.0.0,372476,p1f870lr3ad,frog,z,"<div style=""font-size:30pt;"">Planets are more massive than moons.</div>",Astronomy,T,T,Planet,TRUE,T,TRUE,NA,/Users/martincz/GitHub/COGS119/group_wi26_naive_theories/analysis/../data/raw_data/p1f870lr3ad_1772139911965.csv
NA,4726,html-keyboard-response,86,2.0.0,377704,p1f870lr3ad,frog,z,"<div style=""font-size:30pt;"">Phases of the moon are caused by the moon's orbit.</div>",Astronomy,T,F,Lunar phase,FALSE,T,TRUE,NA,/Users/martincz/GitHub/COGS119/group_wi26_naive_theories/analysis/../data/raw_data/p1f870lr3ad_1772139911965.csv
NA,3405,html-keyboard-response,87,2.0.0,381611,p1f870lr3ad,frog,z,"<div style=""font-size:30pt;"">The sun produces sound.</div>",Astronomy,F,F,Star,TRUE,T,FALSE,NA,/Users/martincz/GitHub/COGS119/group_wi26_naive_theories/analysis/../data/raw_data/p1f870lr3ad_1772139911965.csv
NA,2026,html-keyboard-response,88,2.0.0,384139,p1f870lr3ad,frog,m,"<div style=""font-size:30pt;"">The moon produces light.</div>",Astronomy,F,T,Star,FALSE,F,TRUE,NA,/Users/martincz/GitHub/COGS119/group_wi26_naive_theories/analysis/../data/raw_data/p1f870lr3ad_1772139911965.csv
NA,1692,html-keyboard-response,89,2.0.0,386334,p1f870lr3ad,frog,m,"<div style=""font-size:30pt;"">Phases of the moon are caused by clouds.</div>",Astronomy,F,F,Lunar phase,TRUE,F,TRUE,NA,/Users/martincz/GitHub/COGS119/group_wi26_naive_theories/analysis/../data/raw_data/p1f870lr3ad_1772139911965.csv
NA,1983,html-keyboard-response,90,2.0.0,388818,p1f870lr3ad,frog,m,"<div style=""font-size:30pt;"">The sun revolves around the earth.</div>",Astronomy,F,T,Solar system,FALSE,F,TRUE,NA,/Users/martincz/GitHub/COGS119/group_wi26_naive_theories/analysis/../data/raw_data/p1f870lr3ad_1772139911965.csv
NA,1474,html-keyboard-response,91,2.0.0,390794,p1f870lr3ad,frog,NA,<p>The next 20 statements will be about <b>Genetics</b>. Press any key to continue.</p>,NA,NA,NA,NA,NA,NA,NA,NA,/Users/martincz/GitHub/COGS119/group_wi26_naive_theories/analysis/../data/raw_data/p1f870lr3ad_1772139911965.csv
NA,4821,html-keyboard-response,92,2.0.0,395616,p1f870lr3ad,frog,m,"<div style=""font-size:30pt;"">Genes that code for eye color can be found in tears.</div>",Genetics,F,T,Expression,FALSE,F,TRUE,NA,/Users/martincz/GitHub/COGS119/group_wi26_naive_theories/analysis/../data/raw_data/p1f870lr3ad_1772139911965.csv
NA,2724,html-keyboard-response,93,2.0.0,398842,p1f870lr3ad,frog,z,"<div style=""font-size:30pt;"">Men have more chromosomes than women.</div>",Genetics,F,F,Chromosome,TRUE,T,FALSE,NA,/Users/martincz/GitHub/COGS119/group_wi26_naive_theories/analysis/../data/raw_data/p1f870lr3ad_1772139911965.csv
NA,4826,html-keyboard-response,94,2.0.0,404171,p1f870lr3ad,frog,m,"<div style=""font-size:30pt;"">Genes that code for eye color can be found in the liver.</div>",Genetics,T,F,Expression,FALSE,F,FALSE,NA,/Users/martincz/GitHub/COGS119/group_wi26_naive_theories/analysis/../data/raw_data/p1f870lr3ad_1772139911965.csv
NA,1816,html-keyboard-response,95,2.0.0,406489,p1f870lr3ad,frog,m,"<div style=""font-size:30pt;"">Genes that code for eye color can be found in hair.</div>",Genetics,F,F,Expression,TRUE,F,TRUE,NA,/Users/martincz/GitHub/COGS119/group_wi26_naive_theories/analysis/../data/raw_data/p1f870lr3ad_1772139911965.csv
NA,2695,html-keyboard-response,96,2.0.0,409685,p1f870lr3ad,frog,z,"<div style=""font-size:30pt;"">Hair color is heritable.</div>",Genetics,T,T,Heritability,TRUE,T,TRUE,NA,/Users/martincz/GitHub/COGS119/group_wi26_naive_theories/analysis/../data/raw_data/p1f870lr3ad_1772139911965.csv
NA,2260,html-keyboard-response,97,2.0.0,412447,p1f870lr3ad,frog,z,"<div style=""font-size:30pt;"">Intelligence is heritable.</div>",Genetics,T,F,Heritability,FALSE,T,TRUE,NA,/Users/martincz/GitHub/COGS119/group_wi26_naive_theories/analysis/../data/raw_data/p1f870lr3ad_1772139911965.csv
NA,1743,html-keyboard-response,98,2.0.0,414692,p1f870lr3ad,frog,t,"<div style=""font-size:30pt;"">Press T if you are paying attention. Do not press z or m.</div>",Genetics,T3,T3,AttentionCheck,TRUE,T3,TRUE,NA,/Users/martincz/GitHub/COGS119/group_wi26_naive_theories/analysis/../data/raw_data/p1f870lr3ad_1772139911965.csv
NA,2375,html-keyboard-response,99,2.0.0,417569,p1f870lr3ad,frog,z,"<div style=""font-size:30pt;"">Viruses can change one's genome.</div>",Genetics,T,F,Mutation,FALSE,T,TRUE,NA,/Users/martincz/GitHub/COGS119/group_wi26_naive_theories/analysis/../data/raw_data/p1f870lr3ad_1772139911965.csv
NA,2284,html-keyboard-response,100,2.0.0,420355,p1f870lr3ad,frog,m,"<div style=""font-size:30pt;"">Genes that code for eye color can be found in the eye.</div>",Genetics,T,T,Expression,TRUE,F,FALSE,NA,/Users/martincz/GitHub/COGS119/group_wi26_naive_theories/analysis/../data/raw_data/p1f870lr3ad_1772139911965.csv
NA,1481,html-keyboard-response,101,2.0.0,422339,p1f870lr3ad,frog,m,"<div style=""font-size:30pt;"">Sunscreen can change one's genome.</div>",Genetics,F,F,Mutation,TRUE,F,TRUE,NA,/Users/martincz/GitHub/COGS119/group_wi26_naive_theories/analysis/../data/raw_data/p1f870lr3ad_1772139911965.csv
NA,1301,html-keyboard-response,102,2.0.0,424142,p1f870lr3ad,frog,z,"<div style=""font-size:30pt;"">Radiation can change one's genome.</div>",Genetics,T,T,Mutation,TRUE,T,TRUE,NA,/Users/martincz/GitHub/COGS119/group_wi26_naive_theories/analysis/../data/raw_data/p1f870lr3ad_1772139911965.csv
NA,2097,html-keyboard-response,103,2.0.0,426741,p1f870lr3ad,frog,m,"<div style=""font-size:30pt;"">A blue-eyed baby must have two blue-eyed parents.</div>",Genetics,F,T,Dominance,FALSE,F,TRUE,NA,/Users/martincz/GitHub/COGS119/group_wi26_naive_theories/analysis/../data/raw_data/p1f870lr3ad_1772139911965.csv
NA,2278,html-keyboard-response,104,2.0.0,429521,p1f870lr3ad,frog,z,"<div style=""font-size:30pt;"">Two blue-eyed parents could have a brown-eyed baby.</div>",Genetics,F,F,Dominance,TRUE,T,FALSE,NA,/Users/martincz/GitHub/COGS119/group_wi26_naive_theories/analysis/../data/raw_data/p1f870lr3ad_1772139911965.csv
NA,3088,html-keyboard-response,105,2.0.0,433111,p1f870lr3ad,frog,m,"<div style=""font-size:30pt;"">Humans have more chromosomes than mosquitoes.</div>",Genetics,T,T,Chromosome,TRUE,F,FALSE,NA,/Users/martincz/GitHub/COGS119/group_wi26_naive_theories/analysis/../data/raw_data/p1f870lr3ad_1772139911965.csv
NA,2877,html-keyboard-response,106,2.0.0,436490,p1f870lr3ad,frog,m,"<div style=""font-size:30pt;"">Skin cells have more chromosomes than egg cells.</div>",Genetics,T,F,Chromosome,FALSE,F,FALSE,NA,/Users/martincz/GitHub/COGS119/group_wi26_naive_theories/analysis/../data/raw_data/p1f870lr3ad_1772139911965.csv
NA,2215,html-keyboard-response,107,2.0.0,439208,p1f870lr3ad,frog,z,"<div style=""font-size:30pt;"">Two brown-eyed parents could have a blue-eyed baby.</div>",Genetics,T,F,Dominance,FALSE,T,TRUE,NA,/Users/martincz/GitHub/COGS119/group_wi26_naive_theories/analysis/../data/raw_data/p1f870lr3ad_1772139911965.csv
NA,2696,html-keyboard-response,108,2.0.0,442406,p1f870lr3ad,frog,m,"<div style=""font-size:30pt;"">Immunity to chickenpox is heritable.</div>",Genetics,F,T,Heritability,FALSE,F,TRUE,NA,/Users/martincz/GitHub/COGS119/group_wi26_naive_theories/analysis/../data/raw_data/p1f870lr3ad_1772139911965.csv
NA,2567,html-keyboard-response,109,2.0.0,445475,p1f870lr3ad,frog,z,"<div style=""font-size:30pt;"">Two brown-eyed parents could have a brown-eyed baby.</div>",Genetics,T,T,Dominance,TRUE,T,TRUE,NA,/Users/martincz/GitHub/COGS119/group_wi26_naive_theories/analysis/../data/raw_data/p1f870lr3ad_1772139911965.csv
NA,4719,html-keyboard-response,110,2.0.0,450696,p1f870lr3ad,frog,m,"<div style=""font-size:30pt;"">Adults have more chromosomes than children.</div>",Genetics,F,T,Chromosome,FALSE,F,TRUE,NA,/Users/martincz/GitHub/COGS119/group_wi26_naive_theories/analysis/../data/raw_data/p1f870lr3ad_1772139911965.csv
NA,1515,html-keyboard-response,111,2.0.0,452713,p1f870lr3ad,frog,m,"<div style=""font-size:30pt;"">Pierced ears are heritable.</div>",Genetics,F,F,Heritability,TRUE,F,TRUE,NA,/Users/martincz/GitHub/COGS119/group_wi26_naive_theories/analysis/../data/raw_data/p1f870lr3ad_1772139911965.csv
NA,1598,html-keyboard-response,112,2.0.0,454814,p1f870lr3ad,frog,m,"<div style=""font-size:30pt;"">Exercise can change one's genome.</div>",Genetics,F,T,Mutation,FALSE,F,TRUE,NA,/Users/martincz/GitHub/COGS119/group_wi26_naive_theories/analysis/../data/raw_data/p1f870lr3ad_1772139911965.csv
NA,1038,html-keyboard-response,113,2.0.0,456353,p1f870lr3ad,frog,NA,<p>The next 20 statements will be about <b>Mechanics</b>. Press any key to continue.</p>,NA,NA,NA,NA,NA,NA,NA,NA,/Users/martincz/GitHub/COGS119/group_wi26_naive_theories/analysis/../data/raw_data/p1f870lr3ad_1772139911965.csv
NA,5877,html-keyboard-response,114,2.0.0,462231,p1f870lr3ad,frog,z,"<div style=""font-size:30pt;"">Constant motion requires constant force.</div>",Mechanics,F,T,Acceleration,FALSE,T,FALSE,NA,/Users/martincz/GitHub/COGS119/group_wi26_naive_theories/analysis/../data/raw_data/p1f870lr3ad_1772139911965.csv
NA,1925,html-keyboard-response,115,2.0.0,464659,p1f870lr3ad,frog,z,"<div style=""font-size:30pt;"">Forces can be transferred from one object to another.</div>",Mechanics,F,T,Momentum,FALSE,T,FALSE,NA,/Users/martincz/GitHub/COGS119/group_wi26_naive_theories/analysis/../data/raw_data/p1f870lr3ad_1772139911965.csv
NA,4797,html-keyboard-response,116,2.0.0,469958,p1f870lr3ad,frog,m,"<div style=""font-size:30pt;"">Bright objects fall through air faster than dark objects.</div>",Mechanics,F,F,Gravity,TRUE,F,TRUE,NA,/Users/martincz/GitHub/COGS119/group_wi26_naive_theories/analysis/../data/raw_data/p1f870lr3ad_1772139911965.csv
NA,1952,html-keyboard-response,117,2.0.0,472413,p1f870lr3ad,frog,z,"<div style=""font-size:30pt;"">Energy can be transferred from one object to another.</div>",Mechanics,T,F,Momentum,FALSE,T,TRUE,NA,/Users/martincz/GitHub/COGS119/group_wi26_naive_theories/analysis/../data/raw_data/p1f870lr3ad_1772139911965.csv
NA,2115,html-keyboard-response,118,2.0.0,475031,p1f870lr3ad,frog,m,"<div style=""font-size:30pt;"">Forces can be balanced or unbalanced.</div>",Mechanics,T,F,Force,FALSE,F,FALSE,NA,/Users/martincz/GitHub/COGS119/group_wi26_naive_theories/analysis/../data/raw_data/p1f870lr3ad_1772139911965.csv
NA,3235,html-keyboard-response,119,2.0.0,478769,p1f870lr3ad,frog,m,"<div style=""font-size:30pt;"">Pointy objects fall through air faster than flat objects.</div>",Mechanics,T,F,Gravity,FALSE,F,FALSE,NA,/Users/martincz/GitHub/COGS119/group_wi26_naive_theories/analysis/../data/raw_data/p1f870lr3ad_1772139911965.csv
NA,3516,html-keyboard-response,120,2.0.0,482786,p1f870lr3ad,frog,z,"<div style=""font-size:30pt;"">Constant acceleration requires constant force.</div>",Mechanics,T,T,Acceleration,TRUE,T,TRUE,NA,/Users/martincz/GitHub/COGS119/group_wi26_naive_theories/analysis/../data/raw_data/p1f870lr3ad_1772139911965.csv
NA,1401,html-keyboard-response,121,2.0.0,484689,p1f870lr3ad,frog,t,"<div style=""font-size:30pt;"">Press T if you are paying attention. Do not press z or m.</div>",Mechanics,T3,T3,AttentionCheck,TRUE,T3,TRUE,NA,/Users/martincz/GitHub/COGS119/group_wi26_naive_theories/analysis/../data/raw_data/p1f870lr3ad_1772139911965.csv
NA,2800,html-keyboard-response,122,2.0.0,487991,p1f870lr3ad,frog,m,"<div style=""font-size:30pt;"">Forces can be straight or curved.</div>",Mechanics,F,T,Force,FALSE,F,TRUE,NA,/Users/martincz/GitHub/COGS119/group_wi26_naive_theories/analysis/../data/raw_data/p1f870lr3ad_1772139911965.csv
NA,1529,html-keyboard-response,123,2.0.0,490023,p1f870lr3ad,frog,m,"<div style=""font-size:30pt;"">Forces can be male or female.</div>",Mechanics,F,F,Force,TRUE,F,TRUE,NA,/Users/martincz/GitHub/COGS119/group_wi26_naive_theories/analysis/../data/raw_data/p1f870lr3ad_1772139911965.csv
NA,3882,html-keyboard-response,124,2.0.0,494408,p1f870lr3ad,frog,m,"<div style=""font-size:30pt;"">A moving bullet loses weight.</div>",Mechanics,F,F,Velocity,TRUE,F,TRUE,NA,/Users/martincz/GitHub/COGS119/group_wi26_naive_theories/analysis/../data/raw_data/p1f870lr3ad_1772139911965.csv
NA,2418,html-keyboard-response,125,2.0.0,497328,p1f870lr3ad,frog,m,"<div style=""font-size:30pt;"">Anvils fall through air faster than feathers.</div>",Mechanics,T,T,Gravity,TRUE,F,FALSE,NA,/Users/martincz/GitHub/COGS119/group_wi26_naive_theories/analysis/../data/raw_data/p1f870lr3ad_1772139911965.csv
NA,2398,html-keyboard-response,126,2.0.0,500229,p1f870lr3ad,frog,z,"<div style=""font-size:30pt;"">Momentum can be transferred from one object to another.</div>",Mechanics,T,T,Momentum,TRUE,T,TRUE,NA,/Users/martincz/GitHub/COGS119/group_wi26_naive_theories/analysis/../data/raw_data/p1f870lr3ad_1772139911965.csv
NA,1331,html-keyboard-response,127,2.0.0,502061,p1f870lr3ad,frog,z,"<div style=""font-size:30pt;"">Forces can be strong or weak.</div>",Mechanics,T,T,Force,TRUE,T,TRUE,NA,/Users/martincz/GitHub/COGS119/group_wi26_naive_theories/analysis/../data/raw_data/p1f870lr3ad_1772139911965.csv
NA,1947,html-keyboard-response,128,2.0.0,504511,p1f870lr3ad,frog,m,"<div style=""font-size:30pt;"">Heavy balls fall through air faster than light balls.</div>",Mechanics,F,T,Gravity,FALSE,F,TRUE,NA,/Users/martincz/GitHub/COGS119/group_wi26_naive_theories/analysis/../data/raw_data/p1f870lr3ad_1772139911965.csv
NA,3265,html-keyboard-response,129,2.0.0,508278,p1f870lr3ad,frog,m,"<div style=""font-size:30pt;"">A moving bullet loses height.</div>",Mechanics,T,F,Velocity,FALSE,F,FALSE,NA,/Users/martincz/GitHub/COGS119/group_wi26_naive_theories/analysis/../data/raw_data/p1f870lr3ad_1772139911965.csv
NA,4821,html-keyboard-response,130,2.0.0,513601,p1f870lr3ad,frog,m,"<div style=""font-size:30pt;"">Constant speed requires constant acceleration.</div>",Mechanics,F,F,Acceleration,TRUE,F,TRUE,NA,/Users/martincz/GitHub/COGS119/group_wi26_naive_theories/analysis/../data/raw_data/p1f870lr3ad_1772139911965.csv
NA,2032,html-keyboard-response,131,2.0.0,516135,p1f870lr3ad,frog,z,"<div style=""font-size:30pt;"">Color can be transferred from one object to another.</div>",Mechanics,F,F,Momentum,TRUE,T,FALSE,NA,/Users/martincz/GitHub/COGS119/group_wi26_naive_theories/analysis/../data/raw_data/p1f870lr3ad_1772139911965.csv
NA,4210,html-keyboard-response,132,2.0.0,520847,p1f870lr3ad,frog,m,"<div style=""font-size:30pt;"">Constant force can yield constant rest.</div>",Mechanics,T,F,Acceleration,FALSE,F,FALSE,NA,/Users/martincz/GitHub/COGS119/group_wi26_naive_theories/analysis/../data/raw_data/p1f870lr3ad_1772139911965.csv
NA,1513,html-keyboard-response,133,2.0.0,522861,p1f870lr3ad,frog,z,"<div style=""font-size:30pt;"">A moving bullet loses speed.</div>",Mechanics,T,T,Velocity,TRUE,T,TRUE,NA,/Users/martincz/GitHub/COGS119/group_wi26_naive_theories/analysis/../data/raw_data/p1f870lr3ad_1772139911965.csv
NA,3028,html-keyboard-response,134,2.0.0,526392,p1f870lr3ad,frog,m,"<div style=""font-size:30pt;"">A moving bullet loses force.</div>",Mechanics,F,T,Velocity,FALSE,F,TRUE,NA,/Users/martincz/GitHub/COGS119/group_wi26_naive_theories/analysis/../data/raw_data/p1f870lr3ad_1772139911965.csv
NA,1379,html-keyboard-response,135,2.0.0,528273,p1f870lr3ad,frog,NA,<p>The next 20 statements will be about <b>Germs</b>. Press any key to continue.</p>,NA,NA,NA,NA,NA,NA,NA,NA,/Users/martincz/GitHub/COGS119/group_wi26_naive_theories/analysis/../data/raw_data/p1f870lr3ad_1772139911965.csv
NA,7668,html-keyboard-response,136,2.0.0,535942,p1f870lr3ad,frog,z,"<div style=""font-size:30pt;"">Being cold can make a person sick.</div>",Germs,F,T,Contagion,FALSE,T,FALSE,NA,/Users/martincz/GitHub/COGS119/group_wi26_naive_theories/analysis/../data/raw_data/p1f870lr3ad_1772139911965.csv
NA,5724,html-keyboard-response,137,2.0.0,542169,p1f870lr3ad,frog,m,"<div style=""font-size:30pt;"">Germs enter the body through the eyes.</div>",Germs,T,F,Infection,FALSE,F,FALSE,NA,/Users/martincz/GitHub/COGS119/group_wi26_naive_theories/analysis/../data/raw_data/p1f870lr3ad_1772139911965.csv
NA,2909,html-keyboard-response,138,2.0.0,545579,p1f870lr3ad,frog,z,"<div style=""font-size:30pt;"">Urine contains germs.</div>",Germs,F,T,Contamination,FALSE,T,FALSE,NA,/Users/martincz/GitHub/COGS119/group_wi26_naive_theories/analysis/../data/raw_data/p1f870lr3ad_1772139911965.csv
NA,7183,html-keyboard-response,139,2.0.0,553265,p1f870lr3ad,frog,m,"<div style=""font-size:30pt;"">Heat kills germs.</div>",Germs,T,F,Sterilization,FALSE,F,FALSE,NA,/Users/martincz/GitHub/COGS119/group_wi26_naive_theories/analysis/../data/raw_data/p1f870lr3ad_1772139911965.csv
NA,1723,html-keyboard-response,140,2.0.0,555490,p1f870lr3ad,frog,t,"<div style=""font-size:30pt;"">Press T if you are paying attention. Do not press z or m.</div>",Germs,T3,T3,AttentionCheck,TRUE,T3,TRUE,NA,/Users/martincz/GitHub/COGS119/group_wi26_naive_theories/analysis/../data/raw_data/p1f870lr3ad_1772139911965.csv
NA,1111,html-keyboard-response,141,2.0.0,557103,p1f870lr3ad,frog,m,"<div style=""font-size:30pt;"">Germs have feelings.</div>",Germs,F,F,Microbe,TRUE,F,TRUE,NA,/Users/martincz/GitHub/COGS119/group_wi26_naive_theories/analysis/../data/raw_data/p1f870lr3ad_1772139911965.csv
NA,1948,html-keyboard-response,142,2.0.0,559554,p1f870lr3ad,frog,m,"<div style=""font-size:30pt;"">Being happy can make a person sick.</div>",Germs,F,F,Contagion,TRUE,F,TRUE,NA,/Users/martincz/GitHub/COGS119/group_wi26_naive_theories/analysis/../data/raw_data/p1f870lr3ad_1772139911965.csv
NA,2755,html-keyboard-response,143,2.0.0,562811,p1f870lr3ad,frog,z,"<div style=""font-size:30pt;"">Alcohol kills germs.</div>",Germs,T,T,Sterilization,TRUE,T,TRUE,NA,/Users/martincz/GitHub/COGS119/group_wi26_naive_theories/analysis/../data/raw_data/p1f870lr3ad_1772139911965.csv
NA,1128,html-keyboard-response,144,2.0.0,564440,p1f870lr3ad,frog,m,"<div style=""font-size:30pt;"">Water kills germs.</div>",Germs,F,T,Sterilization,FALSE,F,TRUE,NA,/Users/martincz/GitHub/COGS119/group_wi26_naive_theories/analysis/../data/raw_data/p1f870lr3ad_1772139911965.csv
NA,1828,html-keyboard-response,145,2.0.0,566771,p1f870lr3ad,frog,z,"<div style=""font-size:30pt;"">Germs enter the body through cuts.</div>",Germs,T,T,Infection,TRUE,T,TRUE,NA,/Users/martincz/GitHub/COGS119/group_wi26_naive_theories/analysis/../data/raw_data/p1f870lr3ad_1772139911965.csv
NA,2943,html-keyboard-response,146,2.0.0,570217,p1f870lr3ad,frog,z,"<div style=""font-size:30pt;"">Being sneezed on can make a person sick.</div>",Germs,T,T,Contagion,TRUE,T,TRUE,NA,/Users/martincz/GitHub/COGS119/group_wi26_naive_theories/analysis/../data/raw_data/p1f870lr3ad_1772139911965.csv
NA,1504,html-keyboard-response,147,2.0.0,572223,p1f870lr3ad,frog,m,"<div style=""font-size:30pt;"">Germs have an odor.</div>",Germs,F,T,Microbe,FALSE,F,TRUE,NA,/Users/martincz/GitHub/COGS119/group_wi26_naive_theories/analysis/../data/raw_data/p1f870lr3ad_1772139911965.csv
NA,1074,html-keyboard-response,148,2.0.0,573800,p1f870lr3ad,frog,m,"<div style=""font-size:30pt;"">Kindness kills germs.</div>",Germs,F,F,Sterilization,TRUE,F,TRUE,NA,/Users/martincz/GitHub/COGS119/group_wi26_naive_theories/analysis/../data/raw_data/p1f870lr3ad_1772139911965.csv
NA,1782,html-keyboard-response,149,2.0.0,576084,p1f870lr3ad,frog,m,"<div style=""font-size:30pt;"">Sunshine contains germs.</div>",Germs,F,F,Contamination,TRUE,F,TRUE,NA,/Users/martincz/GitHub/COGS119/group_wi26_naive_theories/analysis/../data/raw_data/p1f870lr3ad_1772139911965.csv
NA,1145,html-keyboard-response,150,2.0.0,577731,p1f870lr3ad,frog,m,"<div style=""font-size:30pt;"">Germs have a shape.</div>",Germs,T,T,Microbe,TRUE,F,FALSE,NA,/Users/martincz/GitHub/COGS119/group_wi26_naive_theories/analysis/../data/raw_data/p1f870lr3ad_1772139911965.csv
NA,2550,html-keyboard-response,151,2.0.0,580783,p1f870lr3ad,frog,m,"<div style=""font-size:30pt;"">Germs enter the body through the skin.</div>",Germs,F,T,Infection,FALSE,F,TRUE,NA,/Users/martincz/GitHub/COGS119/group_wi26_naive_theories/analysis/../data/raw_data/p1f870lr3ad_1772139911965.csv
NA,1972,html-keyboard-response,152,2.0.0,583257,p1f870lr3ad,frog,z,"<div style=""font-size:30pt;"">Dish sponges contain germs.</div>",Germs,T,F,Contamination,FALSE,T,TRUE,NA,/Users/martincz/GitHub/COGS119/group_wi26_naive_theories/analysis/../data/raw_data/p1f870lr3ad_1772139911965.csv
NA,3310,html-keyboard-response,153,2.0.0,587069,p1f870lr3ad,frog,m,"<div style=""font-size:30pt;"">Germs have DNA.</div>",Germs,T,F,Microbe,FALSE,F,FALSE,NA,/Users/martincz/GitHub/COGS119/group_wi26_naive_theories/analysis/../data/raw_data/p1f870lr3ad_1772139911965.csv
NA,1693,html-keyboard-response,154,2.0.0,589265,p1f870lr3ad,frog,z,"<div style=""font-size:30pt;"">Rotting meat contains germs.</div>",Germs,T,T,Contamination,TRUE,T,TRUE,NA,/Users/martincz/GitHub/COGS119/group_wi26_naive_theories/analysis/../data/raw_data/p1f870lr3ad_1772139911965.csv
NA,2462,html-keyboard-response,155,2.0.0,592229,p1f870lr3ad,frog,m,"<div style=""font-size:30pt;"">Being depressed can make a person sick.</div>",Germs,T,F,Contagion,FALSE,F,FALSE,NA,/Users/martincz/GitHub/COGS119/group_wi26_naive_theories/analysis/../data/raw_data/p1f870lr3ad_1772139911965.csv
NA,1651,html-keyboard-response,156,2.0.0,594383,p1f870lr3ad,frog,m,"<div style=""font-size:30pt;"">Germs enter the body through the hair.</div>",Germs,F,F,Infection,TRUE,F,TRUE,NA,/Users/martincz/GitHub/COGS119/group_wi26_naive_theories/analysis/../data/raw_data/p1f870lr3ad_1772139911965.csv
NA,2499,html-keyboard-response,157,2.0.0,597384,p1f870lr3ad,frog,NA,"
      <p>Thank you for completing this portion of the 
      experiment. We now have a few  questions for you.</p>
      <p>Press any key to proceed, and click submit once you are 
      done with the questions. Thanks! </p>
",NA,NA,NA,NA,NA,NA,NA,NA,/Users/martincz/GitHub/COGS119/group_wi26_naive_theories/analysis/../data/raw_data/p1f870lr3ad_1772139911965.csv
NA,4853,survey-multi-choice,158,null,602241,p1f870lr3ad,frog,"{""grade"":""4th Year"",""gender"":""Female""}",NA,NA,NA,NA,NA,NA,NA,NA,"[0,1]",/Users/martincz/GitHub/COGS119/group_wi26_naive_theories/analysis/../data/raw_data/p1f870lr3ad_1772139911965.csv
NA,34937,survey,159,4.0.0,637230,p1f870lr3ad,frog,"{""age"":22,""major"":""Cognitive Science"",""experiment_topic"":""Testing people's knowledge "",""technical_difficulties"":""Nope""}",NA,NA,NA,NA,NA,NA,NA,NA,NA,/Users/martincz/GitHub/COGS119/group_wi26_naive_theories/analysis/../data/raw_data/p1f870lr3ad_1772139911965.csv
TRUE,7162,fullscreen,0,null,8172,p1fu5vcb0jw,gecko,NA,NA,NA,NA,NA,NA,NA,NA,NA,NA,/Users/martincz/GitHub/COGS119/group_wi26_naive_theories/analysis/../data/raw_data/p1fu5vcb0jw_1772141927155.csv
NA,3886,survey-text,1,2.0.0,12068,p1fu5vcb0jw,gecko,"{""participant_id"":""gecko""}",NA,NA,NA,NA,NA,NA,NA,NA,NA,/Users/martincz/GitHub/COGS119/group_wi26_naive_theories/analysis/../data/raw_data/p1fu5vcb0jw_1772141927155.csv
NA,13181,html-keyboard-response,2,2.0.0,25253,p1fu5vcb0jw,gecko,NA,<p>Welcome to the experiment.<br><br>You will see 140 statements about various topics.<br><br>Please read the statements and respond with whether you think they are <b>true (Z key)</b> or <b>false (M key)</b> as quickly as possible!<br><br>Press any key to begin.</p>,NA,NA,NA,NA,NA,NA,NA,NA,/Users/martincz/GitHub/COGS119/group_wi26_naive_theories/analysis/../data/raw_data/p1fu5vcb0jw_1772141927155.csv
NA,1917,html-keyboard-response,3,2.0.0,27172,p1fu5vcb0jw,gecko,NA,<p>The next 20 statements will be about <b>Matter</b>. Press any key to continue.</p>,NA,NA,NA,NA,NA,NA,NA,NA,/Users/martincz/GitHub/COGS119/group_wi26_naive_theories/analysis/../data/raw_data/p1fu5vcb0jw_1772141927155.csv
NA,5323,html-keyboard-response,4,2.0.0,32497,p1fu5vcb0jw,gecko,m,"<div style=""font-size:30pt;"">A shadow can be cut in half.</div>",Matter,F,T,Divisibility,FALSE,F,TRUE,NA,/Users/martincz/GitHub/COGS119/group_wi26_naive_theories/analysis/../data/raw_data/p1fu5vcb0jw_1772141927155.csv
NA,3030,html-keyboard-response,5,2.0.0,36044,p1fu5vcb0jw,gecko,m,"<div style=""font-size:30pt;"">Atoms are visible to the naked eye.</div>",Matter,F,F,Atom,TRUE,F,TRUE,NA,/Users/martincz/GitHub/COGS119/group_wi26_naive_theories/analysis/../data/raw_data/p1fu5vcb0jw_1772141927155.csv
NA,2961,html-keyboard-response,6,2.0.0,39515,p1fu5vcb0jw,gecko,z,"<div style=""font-size:30pt;"">A grain of sand can be cut in half.</div>",Matter,T,F,Divisibility,FALSE,T,TRUE,NA,/Users/martincz/GitHub/COGS119/group_wi26_naive_theories/analysis/../data/raw_data/p1fu5vcb0jw_1772141927155.csv
NA,2497,html-keyboard-response,7,2.0.0,42519,p1fu5vcb0jw,gecko,z,"<div style=""font-size:30pt;"">Press T if you are paying attention. Do not press z or m.</div>",Matter,T3,T3,AttentionCheck,TRUE,T,FALSE,NA,/Users/martincz/GitHub/COGS119/group_wi26_naive_theories/analysis/../data/raw_data/p1fu5vcb0jw_1772141927155.csv
NA,1760,html-keyboard-response,8,2.0.0,44783,p1fu5vcb0jw,gecko,z,"<div style=""font-size:30pt;"">Steel is denser than foam.</div>",Matter,T,T,Density,TRUE,T,TRUE,NA,/Users/martincz/GitHub/COGS119/group_wi26_naive_theories/analysis/../data/raw_data/p1fu5vcb0jw_1772141927155.csv
NA,1439,html-keyboard-response,9,2.0.0,46736,p1fu5vcb0jw,gecko,m,"<div style=""font-size:30pt;"">A cold penny is denser than a hot penny.</div>",Matter,T,F,Density,FALSE,F,FALSE,NA,/Users/martincz/GitHub/COGS119/group_wi26_naive_theories/analysis/../data/raw_data/p1fu5vcb0jw_1772141927155.csv
NA,3927,html-keyboard-response,10,2.0.0,51173,p1fu5vcb0jw,gecko,m,"<div style=""font-size:30pt;"">A pound of steel weighs more than a ton of steel.</div>",Matter,F,F,Weight,TRUE,F,TRUE,NA,/Users/martincz/GitHub/COGS119/group_wi26_naive_theories/analysis/../data/raw_data/p1fu5vcb0jw_1772141927155.csv
NA,2163,html-keyboard-response,11,2.0.0,53844,p1fu5vcb0jw,gecko,z,"<div style=""font-size:30pt;"">Atoms are the constituents of matter.</div>",Matter,T,T,Atom,TRUE,T,TRUE,NA,/Users/martincz/GitHub/COGS119/group_wi26_naive_theories/analysis/../data/raw_data/p1fu5vcb0jw_1772141927155.csv
NA,2628,html-keyboard-response,12,2.0.0,56975,p1fu5vcb0jw,gecko,m,"<div style=""font-size:30pt;"">A liter of water weighs more than a liter of air.</div>",Matter,T,T,Weight,TRUE,F,FALSE,NA,/Users/martincz/GitHub/COGS119/group_wi26_naive_theories/analysis/../data/raw_data/p1fu5vcb0jw_1772141927155.csv
NA,1652,html-keyboard-response,13,2.0.0,59139,p1fu5vcb0jw,gecko,z,"<div style=""font-size:30pt;"">Ice is denser than water.</div>",Matter,F,T,Density,FALSE,T,FALSE,NA,/Users/martincz/GitHub/COGS119/group_wi26_naive_theories/analysis/../data/raw_data/p1fu5vcb0jw_1772141927155.csv
NA,1797,html-keyboard-response,14,2.0.0,61444,p1fu5vcb0jw,gecko,m,"<div style=""font-size:30pt;"">A pound of steel weighs more than a pound of feathers.</div>",Matter,F,T,Weight,FALSE,F,TRUE,NA,/Users/martincz/GitHub/COGS119/group_wi26_naive_theories/analysis/../data/raw_data/p1fu5vcb0jw_1772141927155.csv
NA,7583,html-keyboard-response,15,2.0.0,69531,p1fu5vcb0jw,gecko,z,"<div style=""font-size:30pt;"">Rocks are composed of matter.</div>",Matter,T,T,Mass,TRUE,T,TRUE,NA,/Users/martincz/GitHub/COGS119/group_wi26_naive_theories/analysis/../data/raw_data/p1fu5vcb0jw_1772141927155.csv
NA,1001,html-keyboard-response,16,2.0.0,71035,p1fu5vcb0jw,gecko,m,"<div style=""font-size:30pt;"">Atoms are weightless.</div>",Matter,F,T,Atom,FALSE,F,TRUE,NA,/Users/martincz/GitHub/COGS119/group_wi26_naive_theories/analysis/../data/raw_data/p1fu5vcb0jw_1772141927155.csv
NA,1493,html-keyboard-response,17,2.0.0,73032,p1fu5vcb0jw,gecko,z,"<div style=""font-size:30pt;"">Foam is denser than brick.</div>",Matter,F,F,Density,TRUE,T,FALSE,NA,/Users/martincz/GitHub/COGS119/group_wi26_naive_theories/analysis/../data/raw_data/p1fu5vcb0jw_1772141927155.csv
NA,6905,html-keyboard-response,18,2.0.0,80448,p1fu5vcb0jw,gecko,z,"<div style=""font-size:30pt;"">Fire is composed of matter.</div>",Matter,F,T,Mass,FALSE,T,FALSE,NA,/Users/martincz/GitHub/COGS119/group_wi26_naive_theories/analysis/../data/raw_data/p1fu5vcb0jw_1772141927155.csv
NA,1726,html-keyboard-response,19,2.0.0,82686,p1fu5vcb0jw,gecko,m,"<div style=""font-size:30pt;"">An idea can be cut in half.</div>",Matter,F,F,Divisibility,TRUE,F,TRUE,NA,/Users/martincz/GitHub/COGS119/group_wi26_naive_theories/analysis/../data/raw_data/p1fu5vcb0jw_1772141927155.csv
NA,2672,html-keyboard-response,20,2.0.0,85867,p1fu5vcb0jw,gecko,m,"<div style=""font-size:30pt;"">A liter of water weighs more than a liter of ice.</div>",Matter,T,F,Weight,FALSE,F,FALSE,NA,/Users/martincz/GitHub/COGS119/group_wi26_naive_theories/analysis/../data/raw_data/p1fu5vcb0jw_1772141927155.csv
NA,1858,html-keyboard-response,21,2.0.0,88239,p1fu5vcb0jw,gecko,z,"<div style=""font-size:30pt;"">Air is composed of matter.</div>",Matter,T,F,Mass,FALSE,T,TRUE,NA,/Users/martincz/GitHub/COGS119/group_wi26_naive_theories/analysis/../data/raw_data/p1fu5vcb0jw_1772141927155.csv
NA,1617,html-keyboard-response,22,2.0.0,90360,p1fu5vcb0jw,gecko,z,"<div style=""font-size:30pt;"">Atoms are mostly empty space.</div>",Matter,T,F,Atom,FALSE,T,TRUE,NA,/Users/martincz/GitHub/COGS119/group_wi26_naive_theories/analysis/../data/raw_data/p1fu5vcb0jw_1772141927155.csv
NA,2410,html-keyboard-response,23,2.0.0,93273,p1fu5vcb0jw,gecko,m,"<div style=""font-size:30pt;"">Numbers are composed of matter.</div>",Matter,F,F,Mass,TRUE,F,TRUE,NA,/Users/martincz/GitHub/COGS119/group_wi26_naive_theories/analysis/../data/raw_data/p1fu5vcb0jw_1772141927155.csv
NA,1502,html-keyboard-response,24,2.0.0,95292,p1fu5vcb0jw,gecko,z,"<div style=""font-size:30pt;"">A log can be cut in half.</div>",Matter,T,T,Divisibility,TRUE,T,TRUE,NA,/Users/martincz/GitHub/COGS119/group_wi26_naive_theories/analysis/../data/raw_data/p1fu5vcb0jw_1772141927155.csv
NA,1485,html-keyboard-response,25,2.0.0,97283,p1fu5vcb0jw,gecko,NA,<p>The next 20 statements will be about <b>Genetics</b>. Press any key to continue.</p>,NA,NA,NA,NA,NA,NA,NA,NA,/Users/martincz/GitHub/COGS119/group_wi26_naive_theories/analysis/../data/raw_data/p1fu5vcb0jw_1772141927155.csv
NA,2009,html-keyboard-response,26,2.0.0,99294,p1fu5vcb0jw,gecko,z,"<div style=""font-size:30pt;"">Radiation can change one's genome.</div>",Genetics,T,T,Mutation,TRUE,T,TRUE,NA,/Users/martincz/GitHub/COGS119/group_wi26_naive_theories/analysis/../data/raw_data/p1fu5vcb0jw_1772141927155.csv
NA,1952,html-keyboard-response,27,2.0.0,101763,p1fu5vcb0jw,gecko,m,"<div style=""font-size:30pt;"">A blue-eyed baby must have two blue-eyed parents.</div>",Genetics,F,T,Dominance,FALSE,F,TRUE,NA,/Users/martincz/GitHub/COGS119/group_wi26_naive_theories/analysis/../data/raw_data/p1fu5vcb0jw_1772141927155.csv
NA,1102,html-keyboard-response,28,2.0.0,103377,p1fu5vcb0jw,gecko,z,"<div style=""font-size:30pt;"">Press T if you are paying attention. Do not press z or m.</div>",Genetics,T3,T3,AttentionCheck,TRUE,T,FALSE,NA,/Users/martincz/GitHub/COGS119/group_wi26_naive_theories/analysis/../data/raw_data/p1fu5vcb0jw_1772141927155.csv
NA,3244,html-keyboard-response,29,2.0.0,107132,p1fu5vcb0jw,gecko,z,"<div style=""font-size:30pt;"">Genes that code for eye color can be found in tears.</div>",Genetics,F,T,Expression,FALSE,T,FALSE,NA,/Users/martincz/GitHub/COGS119/group_wi26_naive_theories/analysis/../data/raw_data/p1fu5vcb0jw_1772141927155.csv
NA,1750,html-keyboard-response,30,2.0.0,109390,p1fu5vcb0jw,gecko,z,"<div style=""font-size:30pt;"">Genes that code for eye color can be found in hair.</div>",Genetics,F,F,Expression,TRUE,T,FALSE,NA,/Users/martincz/GitHub/COGS119/group_wi26_naive_theories/analysis/../data/raw_data/p1fu5vcb0jw_1772141927155.csv
NA,1995,html-keyboard-response,31,2.0.0,111899,p1fu5vcb0jw,gecko,z,"<div style=""font-size:30pt;"">Humans have more chromosomes than mosquitoes.</div>",Genetics,T,T,Chromosome,TRUE,T,TRUE,NA,/Users/martincz/GitHub/COGS119/group_wi26_naive_theories/analysis/../data/raw_data/p1fu5vcb0jw_1772141927155.csv
NA,1139,html-keyboard-response,32,2.0.0,113553,p1fu5vcb0jw,gecko,z,"<div style=""font-size:30pt;"">Sunscreen can change one's genome.</div>",Genetics,F,F,Mutation,TRUE,T,FALSE,NA,/Users/martincz/GitHub/COGS119/group_wi26_naive_theories/analysis/../data/raw_data/p1fu5vcb0jw_1772141927155.csv
NA,2519,html-keyboard-response,33,2.0.0,116578,p1fu5vcb0jw,gecko,z,"<div style=""font-size:30pt;"">Genes that code for eye color can be found in the liver.</div>",Genetics,T,F,Expression,FALSE,T,TRUE,NA,/Users/martincz/GitHub/COGS119/group_wi26_naive_theories/analysis/../data/raw_data/p1fu5vcb0jw_1772141927155.csv
NA,2854,html-keyboard-response,34,2.0.0,119947,p1fu5vcb0jw,gecko,z,"<div style=""font-size:30pt;"">Skin cells have more chromosomes than egg cells.</div>",Genetics,T,F,Chromosome,FALSE,T,TRUE,NA,/Users/martincz/GitHub/COGS119/group_wi26_naive_theories/analysis/../data/raw_data/p1fu5vcb0jw_1772141927155.csv
NA,1853,html-keyboard-response,35,2.0.0,122310,p1fu5vcb0jw,gecko,z,"<div style=""font-size:30pt;"">Hair color is heritable.</div>",Genetics,T,T,Heritability,TRUE,T,TRUE,NA,/Users/martincz/GitHub/COGS119/group_wi26_naive_theories/analysis/../data/raw_data/p1fu5vcb0jw_1772141927155.csv
NA,1611,html-keyboard-response,36,2.0.0,124438,p1fu5vcb0jw,gecko,m,"<div style=""font-size:30pt;"">Men have more chromosomes than women.</div>",Genetics,F,F,Chromosome,TRUE,F,TRUE,NA,/Users/martincz/GitHub/COGS119/group_wi26_naive_theories/analysis/../data/raw_data/p1fu5vcb0jw_1772141927155.csv
NA,1860,html-keyboard-response,37,2.0.0,126803,p1fu5vcb0jw,gecko,z,"<div style=""font-size:30pt;"">Two brown-eyed parents could have a blue-eyed baby.</div>",Genetics,T,F,Dominance,FALSE,T,TRUE,NA,/Users/martincz/GitHub/COGS119/group_wi26_naive_theories/analysis/../data/raw_data/p1fu5vcb0jw_1772141927155.csv
NA,2620,html-keyboard-response,38,2.0.0,129930,p1fu5vcb0jw,gecko,z,"<div style=""font-size:30pt;"">Two brown-eyed parents could have a brown-eyed baby.</div>",Genetics,T,T,Dominance,TRUE,T,TRUE,NA,/Users/martincz/GitHub/COGS119/group_wi26_naive_theories/analysis/../data/raw_data/p1fu5vcb0jw_1772141927155.csv
NA,2608,html-keyboard-response,39,2.0.0,133040,p1fu5vcb0jw,gecko,m,"<div style=""font-size:30pt;"">Adults have more chromosomes than children.</div>",Genetics,F,T,Chromosome,FALSE,F,TRUE,NA,/Users/martincz/GitHub/COGS119/group_wi26_naive_theories/analysis/../data/raw_data/p1fu5vcb0jw_1772141927155.csv
NA,6685,html-keyboard-response,40,2.0.0,140234,p1fu5vcb0jw,gecko,m,"<div style=""font-size:30pt;"">Genes that code for eye color can be found in the eye.</div>",Genetics,T,T,Expression,TRUE,F,FALSE,NA,/Users/martincz/GitHub/COGS119/group_wi26_naive_theories/analysis/../data/raw_data/p1fu5vcb0jw_1772141927155.csv
NA,1667,html-keyboard-response,41,2.0.0,142408,p1fu5vcb0jw,gecko,z,"<div style=""font-size:30pt;"">Two blue-eyed parents could have a brown-eyed baby.</div>",Genetics,F,F,Dominance,TRUE,T,FALSE,NA,/Users/martincz/GitHub/COGS119/group_wi26_naive_theories/analysis/../data/raw_data/p1fu5vcb0jw_1772141927155.csv
NA,2399,html-keyboard-response,42,2.0.0,145324,p1fu5vcb0jw,gecko,m,"<div style=""font-size:30pt;"">Immunity to chickenpox is heritable.</div>",Genetics,F,T,Heritability,FALSE,F,TRUE,NA,/Users/martincz/GitHub/COGS119/group_wi26_naive_theories/analysis/../data/raw_data/p1fu5vcb0jw_1772141927155.csv
NA,1705,html-keyboard-response,43,2.0.0,147547,p1fu5vcb0jw,gecko,m,"<div style=""font-size:30pt;"">Pierced ears are heritable.</div>",Genetics,F,F,Heritability,TRUE,F,TRUE,NA,/Users/martincz/GitHub/COGS119/group_wi26_naive_theories/analysis/../data/raw_data/p1fu5vcb0jw_1772141927155.csv
NA,3327,html-keyboard-response,44,2.0.0,151384,p1fu5vcb0jw,gecko,z,"<div style=""font-size:30pt;"">Viruses can change one's genome.</div>",Genetics,T,F,Mutation,FALSE,T,TRUE,NA,/Users/martincz/GitHub/COGS119/group_wi26_naive_theories/analysis/../data/raw_data/p1fu5vcb0jw_1772141927155.csv
NA,1087,html-keyboard-response,45,2.0.0,152978,p1fu5vcb0jw,gecko,m,"<div style=""font-size:30pt;"">Intelligence is heritable.</div>",Genetics,T,F,Heritability,FALSE,F,FALSE,NA,/Users/martincz/GitHub/COGS119/group_wi26_naive_theories/analysis/../data/raw_data/p1fu5vcb0jw_1772141927155.csv
NA,1175,html-keyboard-response,46,2.0.0,154660,p1fu5vcb0jw,gecko,z,"<div style=""font-size:30pt;"">Exercise can change one's genome.</div>",Genetics,F,T,Mutation,FALSE,T,FALSE,NA,/Users/martincz/GitHub/COGS119/group_wi26_naive_theories/analysis/../data/raw_data/p1fu5vcb0jw_1772141927155.csv
NA,1401,html-keyboard-response,47,2.0.0,156576,p1fu5vcb0jw,gecko,NA,<p>The next 20 statements will be about <b>Fractions</b>. Press any key to continue.</p>,NA,NA,NA,NA,NA,NA,NA,NA,/Users/martincz/GitHub/COGS119/group_wi26_naive_theories/analysis/../data/raw_data/p1fu5vcb0jw_1772141927155.csv
NA,2032,html-keyboard-response,48,2.0.0,158610,p1fu5vcb0jw,gecko,m,"<div style=""font-size:30pt;"">1/3 plus 1/3 is 1/3.</div>",Fractions,F,F,Addition,TRUE,F,TRUE,NA,/Users/martincz/GitHub/COGS119/group_wi26_naive_theories/analysis/../data/raw_data/p1fu5vcb0jw_1772141927155.csv
NA,2781,html-keyboard-response,49,2.0.0,161905,p1fu5vcb0jw,gecko,z,"<div style=""font-size:30pt;"">1/13 is greater than 1/30.</div>",Fractions,T,F,Ordering,FALSE,T,TRUE,NA,/Users/martincz/GitHub/COGS119/group_wi26_naive_theories/analysis/../data/raw_data/p1fu5vcb0jw_1772141927155.csv
NA,3361,html-keyboard-response,50,2.0.0,165778,p1fu5vcb0jw,gecko,z,"<div style=""font-size:30pt;"">4 divided by 2/1 is 2.</div>",Fractions,T,T,Division,TRUE,T,TRUE,NA,/Users/martincz/GitHub/COGS119/group_wi26_naive_theories/analysis/../data/raw_data/p1fu5vcb0jw_1772141927155.csv
NA,3152,html-keyboard-response,51,2.0.0,169444,p1fu5vcb0jw,gecko,z,"<div style=""font-size:30pt;"">12/13 is greater than 1/13.</div>",Fractions,T,T,Ordering,TRUE,T,TRUE,NA,/Users/martincz/GitHub/COGS119/group_wi26_naive_theories/analysis/../data/raw_data/p1fu5vcb0jw_1772141927155.csv
NA,2186,html-keyboard-response,52,2.0.0,172136,p1fu5vcb0jw,gecko,z,"<div style=""font-size:30pt;"">All integers are expressible as fractions.</div>",Fractions,T,F,Conversion,FALSE,T,TRUE,NA,/Users/martincz/GitHub/COGS119/group_wi26_naive_theories/analysis/../data/raw_data/p1fu5vcb0jw_1772141927155.csv
NA,5144,html-keyboard-response,53,2.0.0,177785,p1fu5vcb0jw,gecko,m,"<div style=""font-size:30pt;"">8 divided by 1/2 is 4.</div>",Fractions,F,T,Division,FALSE,F,TRUE,NA,/Users/martincz/GitHub/COGS119/group_wi26_naive_theories/analysis/../data/raw_data/p1fu5vcb0jw_1772141927155.csv
NA,1722,html-keyboard-response,54,2.0.0,180014,p1fu5vcb0jw,gecko,z,"<div style=""font-size:30pt;"">There are numbers between 1 and 3.</div>",Fractions,T,T,Infinite density,TRUE,T,TRUE,NA,/Users/martincz/GitHub/COGS119/group_wi26_naive_theories/analysis/../data/raw_data/p1fu5vcb0jw_1772141927155.csv
NA,2359,html-keyboard-response,55,2.0.0,182885,p1fu5vcb0jw,gecko,m,"<div style=""font-size:30pt;"">1/17 is greater than 1/9.</div>",Fractions,F,T,Ordering,FALSE,F,TRUE,NA,/Users/martincz/GitHub/COGS119/group_wi26_naive_theories/analysis/../data/raw_data/p1fu5vcb0jw_1772141927155.csv
NA,7253,html-keyboard-response,56,2.0.0,190652,p1fu5vcb0jw,gecko,m,"<div style=""font-size:30pt;"">All fractions are expressible as integers.</div>",Fractions,F,F,Conversion,TRUE,F,TRUE,NA,/Users/martincz/GitHub/COGS119/group_wi26_naive_theories/analysis/../data/raw_data/p1fu5vcb0jw_1772141927155.csv
NA,2820,html-keyboard-response,57,2.0.0,193978,p1fu5vcb0jw,gecko,m,"<div style=""font-size:30pt;"">8 divided by 2/1 is 3.</div>",Fractions,F,F,Division,TRUE,F,TRUE,NA,/Users/martincz/GitHub/COGS119/group_wi26_naive_theories/analysis/../data/raw_data/p1fu5vcb0jw_1772141927155.csv
NA,2766,html-keyboard-response,58,2.0.0,197260,p1fu5vcb0jw,gecko,z,"<div style=""font-size:30pt;"">4 divided by 1/2 is 8.</div>",Fractions,T,F,Division,FALSE,T,TRUE,NA,/Users/martincz/GitHub/COGS119/group_wi26_naive_theories/analysis/../data/raw_data/p1fu5vcb0jw_1772141927155.csv
NA,2143,html-keyboard-response,59,2.0.0,199910,p1fu5vcb0jw,gecko,z,"<div style=""font-size:30pt;"">There are numbers between 1/10 and 10/100.</div>",Fractions,F,T,Infinite density,FALSE,T,FALSE,NA,/Users/martincz/GitHub/COGS119/group_wi26_naive_theories/analysis/../data/raw_data/p1fu5vcb0jw_1772141927155.csv
NA,3784,html-keyboard-response,60,2.0.0,204208,p1fu5vcb0jw,gecko,m,"<div style=""font-size:30pt;"">2/3 plus 2/4 is 2/7.</div>",Fractions,F,T,Addition,FALSE,F,TRUE,NA,/Users/martincz/GitHub/COGS119/group_wi26_naive_theories/analysis/../data/raw_data/p1fu5vcb0jw_1772141927155.csv
NA,3510,html-keyboard-response,61,2.0.0,208227,p1fu5vcb0jw,gecko,z,"<div style=""font-size:30pt;"">1/10 plus 1/10 is 1/5.</div>",Fractions,T,F,Addition,FALSE,T,TRUE,NA,/Users/martincz/GitHub/COGS119/group_wi26_naive_theories/analysis/../data/raw_data/p1fu5vcb0jw_1772141927155.csv
NA,1697,html-keyboard-response,62,2.0.0,210440,p1fu5vcb0jw,gecko,m,"<div style=""font-size:30pt;"">There are numbers between 10 and 10.</div>",Fractions,F,F,Infinite density,TRUE,F,TRUE,NA,/Users/martincz/GitHub/COGS119/group_wi26_naive_theories/analysis/../data/raw_data/p1fu5vcb0jw_1772141927155.csv
NA,2395,html-keyboard-response,63,2.0.0,213337,p1fu5vcb0jw,gecko,z,"<div style=""font-size:30pt;"">There are numbers between 1/3 and 1/2.</div>",Fractions,T,F,Infinite density,FALSE,T,TRUE,NA,/Users/martincz/GitHub/COGS119/group_wi26_naive_theories/analysis/../data/raw_data/p1fu5vcb0jw_1772141927155.csv
NA,5367,html-keyboard-response,64,2.0.0,219216,p1fu5vcb0jw,gecko,t,"<div style=""font-size:30pt;"">Press T if you are paying attention. Do not press z or m.</div>",Fractions,T3,T3,AttentionCheck,TRUE,T3,TRUE,NA,/Users/martincz/GitHub/COGS119/group_wi26_naive_theories/analysis/../data/raw_data/p1fu5vcb0jw_1772141927155.csv
NA,21350,html-keyboard-response,65,2.0.0,241071,p1fu5vcb0jw,gecko,z,"<div style=""font-size:30pt;"">All decimals are expressible as fractions.</div>",Fractions,T,T,Conversion,TRUE,T,TRUE,NA,/Users/martincz/GitHub/COGS119/group_wi26_naive_theories/analysis/../data/raw_data/p1fu5vcb0jw_1772141927155.csv
NA,2140,html-keyboard-response,66,2.0.0,243715,p1fu5vcb0jw,gecko,m,"<div style=""font-size:30pt;"">1/17 is greater than 16/17.</div>",Fractions,F,F,Ordering,TRUE,F,TRUE,NA,/Users/martincz/GitHub/COGS119/group_wi26_naive_theories/analysis/../data/raw_data/p1fu5vcb0jw_1772141927155.csv
NA,4916,html-keyboard-response,67,2.0.0,249145,p1fu5vcb0jw,gecko,z,"<div style=""font-size:30pt;"">All fractions are expressible as decimals.</div>",Fractions,F,T,Conversion,FALSE,T,FALSE,NA,/Users/martincz/GitHub/COGS119/group_wi26_naive_theories/analysis/../data/raw_data/p1fu5vcb0jw_1772141927155.csv
NA,1899,html-keyboard-response,68,2.0.0,251551,p1fu5vcb0jw,gecko,z,"<div style=""font-size:30pt;"">1/3 plus 1/3 is 2/3.</div>",Fractions,T,T,Addition,TRUE,T,TRUE,NA,/Users/martincz/GitHub/COGS119/group_wi26_naive_theories/analysis/../data/raw_data/p1fu5vcb0jw_1772141927155.csv
NA,1031,html-keyboard-response,69,2.0.0,253087,p1fu5vcb0jw,gecko,NA,<p>The next 20 statements will be about <b>Mechanics</b>. Press any key to continue.</p>,NA,NA,NA,NA,NA,NA,NA,NA,/Users/martincz/GitHub/COGS119/group_wi26_naive_theories/analysis/../data/raw_data/p1fu5vcb0jw_1772141927155.csv
NA,3260,html-keyboard-response,70,2.0.0,256349,p1fu5vcb0jw,gecko,z,"<div style=""font-size:30pt;"">A moving bullet loses speed.</div>",Mechanics,T,T,Velocity,TRUE,T,TRUE,NA,/Users/martincz/GitHub/COGS119/group_wi26_naive_theories/analysis/../data/raw_data/p1fu5vcb0jw_1772141927155.csv
NA,1788,html-keyboard-response,71,2.0.0,258651,p1fu5vcb0jw,gecko,z,"<div style=""font-size:30pt;"">Momentum can be transferred from one object to another.</div>",Mechanics,T,T,Momentum,TRUE,T,TRUE,NA,/Users/martincz/GitHub/COGS119/group_wi26_naive_theories/analysis/../data/raw_data/p1fu5vcb0jw_1772141927155.csv
NA,1831,html-keyboard-response,72,2.0.0,260991,p1fu5vcb0jw,gecko,m,"<div style=""font-size:30pt;"">Heavy balls fall through air faster than light balls.</div>",Mechanics,F,T,Gravity,FALSE,F,TRUE,NA,/Users/martincz/GitHub/COGS119/group_wi26_naive_theories/analysis/../data/raw_data/p1fu5vcb0jw_1772141927155.csv
NA,2231,html-keyboard-response,73,2.0.0,263741,p1fu5vcb0jw,gecko,z,"<div style=""font-size:30pt;"">Constant motion requires constant force.</div>",Mechanics,F,T,Acceleration,FALSE,T,FALSE,NA,/Users/martincz/GitHub/COGS119/group_wi26_naive_theories/analysis/../data/raw_data/p1fu5vcb0jw_1772141927155.csv
NA,2751,html-keyboard-response,74,2.0.0,266996,p1fu5vcb0jw,gecko,z,"<div style=""font-size:30pt;"">Constant acceleration requires constant force.</div>",Mechanics,T,T,Acceleration,TRUE,T,TRUE,NA,/Users/martincz/GitHub/COGS119/group_wi26_naive_theories/analysis/../data/raw_data/p1fu5vcb0jw_1772141927155.csv
NA,1138,html-keyboard-response,75,2.0.0,268649,p1fu5vcb0jw,gecko,z,"<div style=""font-size:30pt;"">Forces can be strong or weak.</div>",Mechanics,T,T,Force,TRUE,T,TRUE,NA,/Users/martincz/GitHub/COGS119/group_wi26_naive_theories/analysis/../data/raw_data/p1fu5vcb0jw_1772141927155.csv
NA,2376,html-keyboard-response,76,2.0.0,271541,p1fu5vcb0jw,gecko,m,"<div style=""font-size:30pt;"">Bright objects fall through air faster than dark objects.</div>",Mechanics,F,F,Gravity,TRUE,F,TRUE,NA,/Users/martincz/GitHub/COGS119/group_wi26_naive_theories/analysis/../data/raw_data/p1fu5vcb0jw_1772141927155.csv
NA,1303,html-keyboard-response,77,2.0.0,273347,p1fu5vcb0jw,gecko,m,"<div style=""font-size:30pt;"">Forces can be straight or curved.</div>",Mechanics,F,T,Force,FALSE,F,TRUE,NA,/Users/martincz/GitHub/COGS119/group_wi26_naive_theories/analysis/../data/raw_data/p1fu5vcb0jw_1772141927155.csv
NA,1865,html-keyboard-response,78,2.0.0,275717,p1fu5vcb0jw,gecko,m,"<div style=""font-size:30pt;"">Pointy objects fall through air faster than flat objects.</div>",Mechanics,T,F,Gravity,FALSE,F,FALSE,NA,/Users/martincz/GitHub/COGS119/group_wi26_naive_theories/analysis/../data/raw_data/p1fu5vcb0jw_1772141927155.csv
NA,1560,html-keyboard-response,79,2.0.0,277779,p1fu5vcb0jw,gecko,z,"<div style=""font-size:30pt;"">Forces can be transferred from one object to another.</div>",Mechanics,F,T,Momentum,FALSE,T,FALSE,NA,/Users/martincz/GitHub/COGS119/group_wi26_naive_theories/analysis/../data/raw_data/p1fu5vcb0jw_1772141927155.csv
NA,2527,html-keyboard-response,80,2.0.0,280824,p1fu5vcb0jw,gecko,m,"<div style=""font-size:30pt;"">A moving bullet loses weight.</div>",Mechanics,F,F,Velocity,TRUE,F,TRUE,NA,/Users/martincz/GitHub/COGS119/group_wi26_naive_theories/analysis/../data/raw_data/p1fu5vcb0jw_1772141927155.csv
NA,2293,html-keyboard-response,81,2.0.0,283627,p1fu5vcb0jw,gecko,z,"<div style=""font-size:30pt;"">Forces can be balanced or unbalanced.</div>",Mechanics,T,F,Force,FALSE,T,TRUE,NA,/Users/martincz/GitHub/COGS119/group_wi26_naive_theories/analysis/../data/raw_data/p1fu5vcb0jw_1772141927155.csv
NA,1752,html-keyboard-response,82,2.0.0,285896,p1fu5vcb0jw,gecko,z,"<div style=""font-size:30pt;"">Energy can be transferred from one object to another.</div>",Mechanics,T,F,Momentum,FALSE,T,TRUE,NA,/Users/martincz/GitHub/COGS119/group_wi26_naive_theories/analysis/../data/raw_data/p1fu5vcb0jw_1772141927155.csv
NA,3410,html-keyboard-response,83,2.0.0,289822,p1fu5vcb0jw,gecko,z,"<div style=""font-size:30pt;"">Constant force can yield constant rest.</div>",Mechanics,T,F,Acceleration,FALSE,T,TRUE,NA,/Users/martincz/GitHub/COGS119/group_wi26_naive_theories/analysis/../data/raw_data/p1fu5vcb0jw_1772141927155.csv
NA,4245,html-keyboard-response,84,2.0.0,294573,p1fu5vcb0jw,gecko,m,"<div style=""font-size:30pt;"">Anvils fall through air faster than feathers.</div>",Mechanics,T,T,Gravity,TRUE,F,FALSE,NA,/Users/martincz/GitHub/COGS119/group_wi26_naive_theories/analysis/../data/raw_data/p1fu5vcb0jw_1772141927155.csv
NA,2952,html-keyboard-response,85,2.0.0,298030,p1fu5vcb0jw,gecko,t,"<div style=""font-size:30pt;"">Press T if you are paying attention. Do not press z or m.</div>",Mechanics,T3,T3,AttentionCheck,TRUE,T3,TRUE,NA,/Users/martincz/GitHub/COGS119/group_wi26_naive_theories/analysis/../data/raw_data/p1fu5vcb0jw_1772141927155.csv
NA,3708,html-keyboard-response,86,2.0.0,302252,p1fu5vcb0jw,gecko,z,"<div style=""font-size:30pt;"">Constant speed requires constant acceleration.</div>",Mechanics,F,F,Acceleration,TRUE,T,FALSE,NA,/Users/martincz/GitHub/COGS119/group_wi26_naive_theories/analysis/../data/raw_data/p1fu5vcb0jw_1772141927155.csv
NA,2130,html-keyboard-response,87,2.0.0,304891,p1fu5vcb0jw,gecko,m,"<div style=""font-size:30pt;"">Color can be transferred from one object to another.</div>",Mechanics,F,F,Momentum,TRUE,F,TRUE,NA,/Users/martincz/GitHub/COGS119/group_wi26_naive_theories/analysis/../data/raw_data/p1fu5vcb0jw_1772141927155.csv
NA,1418,html-keyboard-response,88,2.0.0,306813,p1fu5vcb0jw,gecko,z,"<div style=""font-size:30pt;"">A moving bullet loses force.</div>",Mechanics,F,T,Velocity,FALSE,T,FALSE,NA,/Users/martincz/GitHub/COGS119/group_wi26_naive_theories/analysis/../data/raw_data/p1fu5vcb0jw_1772141927155.csv
NA,1096,html-keyboard-response,89,2.0.0,308423,p1fu5vcb0jw,gecko,m,"<div style=""font-size:30pt;"">Forces can be male or female.</div>",Mechanics,F,F,Force,TRUE,F,TRUE,NA,/Users/martincz/GitHub/COGS119/group_wi26_naive_theories/analysis/../data/raw_data/p1fu5vcb0jw_1772141927155.csv
NA,8323,html-keyboard-response,90,2.0.0,317259,p1fu5vcb0jw,gecko,m,"<div style=""font-size:30pt;"">A moving bullet loses height.</div>",Mechanics,T,F,Velocity,FALSE,F,FALSE,NA,/Users/martincz/GitHub/COGS119/group_wi26_naive_theories/analysis/../data/raw_data/p1fu5vcb0jw_1772141927155.csv
NA,1073,html-keyboard-response,91,2.0.0,318843,p1fu5vcb0jw,gecko,NA,<p>The next 20 statements will be about <b>Physiology</b>. Press any key to continue.</p>,NA,NA,NA,NA,NA,NA,NA,NA,/Users/martincz/GitHub/COGS119/group_wi26_naive_theories/analysis/../data/raw_data/p1fu5vcb0jw_1772141927155.csv
NA,1387,html-keyboard-response,92,2.0.0,320232,p1fu5vcb0jw,gecko,z,"<div style=""font-size:30pt;"">Fish are alive.</div>",Physiology,T,T,Life,TRUE,T,TRUE,NA,/Users/martincz/GitHub/COGS119/group_wi26_naive_theories/analysis/../data/raw_data/p1fu5vcb0jw_1772141927155.csv
NA,1140,html-keyboard-response,93,2.0.0,321882,p1fu5vcb0jw,gecko,m,"<div style=""font-size:30pt;"">Screwdrivers can die.</div>",Physiology,F,F,Death,TRUE,F,TRUE,NA,/Users/martincz/GitHub/COGS119/group_wi26_naive_theories/analysis/../data/raw_data/p1fu5vcb0jw_1772141927155.csv
NA,1226,html-keyboard-response,94,2.0.0,323610,p1fu5vcb0jw,gecko,m,"<div style=""font-size:30pt;"">Clouds can die.</div>",Physiology,F,T,Death,FALSE,F,TRUE,NA,/Users/martincz/GitHub/COGS119/group_wi26_naive_theories/analysis/../data/raw_data/p1fu5vcb0jw_1772141927155.csv
NA,819,html-keyboard-response,95,2.0.0,324939,p1fu5vcb0jw,gecko,z,"<div style=""font-size:30pt;"">Coral is alive.</div>",Physiology,T,F,Life,FALSE,T,TRUE,NA,/Users/martincz/GitHub/COGS119/group_wi26_naive_theories/analysis/../data/raw_data/p1fu5vcb0jw_1772141927155.csv
NA,2008,html-keyboard-response,96,2.0.0,327461,p1fu5vcb0jw,gecko,z,"<div style=""font-size:30pt;"">A baby can be a niece or a nephew.</div>",Physiology,T,T,Kinship,TRUE,T,TRUE,NA,/Users/martincz/GitHub/COGS119/group_wi26_naive_theories/analysis/../data/raw_data/p1fu5vcb0jw_1772141927155.csv
NA,1353,html-keyboard-response,97,2.0.0,329323,p1fu5vcb0jw,gecko,z,"<div style=""font-size:30pt;"">Ferns can reproduce.</div>",Physiology,T,F,Reproduction,FALSE,T,TRUE,NA,/Users/martincz/GitHub/COGS119/group_wi26_naive_theories/analysis/../data/raw_data/p1fu5vcb0jw_1772141927155.csv
NA,1521,html-keyboard-response,98,2.0.0,331358,p1fu5vcb0jw,gecko,m,"<div style=""font-size:30pt;"">A baby can be a mother or a father.</div>",Physiology,F,F,Kinship,TRUE,F,TRUE,NA,/Users/martincz/GitHub/COGS119/group_wi26_naive_theories/analysis/../data/raw_data/p1fu5vcb0jw_1772141927155.csv
NA,1688,html-keyboard-response,99,2.0.0,333558,p1fu5vcb0jw,gecko,z,"<div style=""font-size:30pt;"">People turn food into energy.</div>",Physiology,T,T,Metabolism,TRUE,T,TRUE,NA,/Users/martincz/GitHub/COGS119/group_wi26_naive_theories/analysis/../data/raw_data/p1fu5vcb0jw_1772141927155.csv
NA,1187,html-keyboard-response,100,2.0.0,335248,p1fu5vcb0jw,gecko,z,"<div style=""font-size:30pt;"">Tigers can reproduce.</div>",Physiology,T,T,Reproduction,TRUE,T,TRUE,NA,/Users/martincz/GitHub/COGS119/group_wi26_naive_theories/analysis/../data/raw_data/p1fu5vcb0jw_1772141927155.csv
NA,1800,html-keyboard-response,101,2.0.0,337552,p1fu5vcb0jw,gecko,t,"<div style=""font-size:30pt;"">Press T if you are paying attention. Do not press z or m.</div>",Physiology,T3,T3,AttentionCheck,TRUE,T3,TRUE,NA,/Users/martincz/GitHub/COGS119/group_wi26_naive_theories/analysis/../data/raw_data/p1fu5vcb0jw_1772141927155.csv
NA,6758,html-keyboard-response,102,2.0.0,344819,p1fu5vcb0jw,gecko,m,"<div style=""font-size:30pt;"">Chairs can reproduce.</div>",Physiology,F,F,Reproduction,TRUE,F,TRUE,NA,/Users/martincz/GitHub/COGS119/group_wi26_naive_theories/analysis/../data/raw_data/p1fu5vcb0jw_1772141927155.csv
NA,3880,html-keyboard-response,103,2.0.0,349209,p1fu5vcb0jw,gecko,z,"<div style=""font-size:30pt;"">The sun is alive.</div>",Physiology,F,T,Life,FALSE,T,FALSE,NA,/Users/martincz/GitHub/COGS119/group_wi26_naive_theories/analysis/../data/raw_data/p1fu5vcb0jw_1772141927155.csv
NA,1697,html-keyboard-response,104,2.0.0,351417,p1fu5vcb0jw,gecko,z,"<div style=""font-size:30pt;"">A baby can be an uncle or an aunt.</div>",Physiology,T,F,Kinship,FALSE,T,TRUE,NA,/Users/martincz/GitHub/COGS119/group_wi26_naive_theories/analysis/../data/raw_data/p1fu5vcb0jw_1772141927155.csv
NA,1740,html-keyboard-response,105,2.0.0,353673,p1fu5vcb0jw,gecko,z,"<div style=""font-size:30pt;"">Mushrooms can die.</div>",Physiology,T,F,Death,FALSE,T,TRUE,NA,/Users/martincz/GitHub/COGS119/group_wi26_naive_theories/analysis/../data/raw_data/p1fu5vcb0jw_1772141927155.csv
NA,854,html-keyboard-response,106,2.0.0,355041,p1fu5vcb0jw,gecko,z,"<div style=""font-size:30pt;"">Turtles can die.</div>",Physiology,T,T,Death,TRUE,T,TRUE,NA,/Users/martincz/GitHub/COGS119/group_wi26_naive_theories/analysis/../data/raw_data/p1fu5vcb0jw_1772141927155.csv
NA,965,html-keyboard-response,107,2.0.0,356514,p1fu5vcb0jw,gecko,z,"<div style=""font-size:30pt;"">Plants turn food into energy.</div>",Physiology,F,T,Metabolism,FALSE,T,FALSE,NA,/Users/martincz/GitHub/COGS119/group_wi26_naive_theories/analysis/../data/raw_data/p1fu5vcb0jw_1772141927155.csv
NA,1404,html-keyboard-response,108,2.0.0,358434,p1fu5vcb0jw,gecko,m,"<div style=""font-size:30pt;"">Rocks turn food into energy.</div>",Physiology,F,F,Metabolism,TRUE,F,TRUE,NA,/Users/martincz/GitHub/COGS119/group_wi26_naive_theories/analysis/../data/raw_data/p1fu5vcb0jw_1772141927155.csv
NA,1258,html-keyboard-response,109,2.0.0,360198,p1fu5vcb0jw,gecko,z,"<div style=""font-size:30pt;"">Caterpillars can reproduce.</div>",Physiology,F,T,Reproduction,FALSE,T,FALSE,NA,/Users/martincz/GitHub/COGS119/group_wi26_naive_theories/analysis/../data/raw_data/p1fu5vcb0jw_1772141927155.csv
NA,944,html-keyboard-response,110,2.0.0,361656,p1fu5vcb0jw,gecko,z,"<div style=""font-size:30pt;"">Rocks are alive.</div>",Physiology,F,F,Life,TRUE,T,FALSE,NA,/Users/martincz/GitHub/COGS119/group_wi26_naive_theories/analysis/../data/raw_data/p1fu5vcb0jw_1772141927155.csv
NA,2023,html-keyboard-response,111,2.0.0,364193,p1fu5vcb0jw,gecko,m,"<div style=""font-size:30pt;"">A baby can be identical to an older sibling.</div>",Physiology,F,T,Kinship,FALSE,F,TRUE,NA,/Users/martincz/GitHub/COGS119/group_wi26_naive_theories/analysis/../data/raw_data/p1fu5vcb0jw_1772141927155.csv
NA,2476,html-keyboard-response,112,2.0.0,367171,p1fu5vcb0jw,gecko,z,"<div style=""font-size:30pt;"">Bacteria turn food into energy.</div>",Physiology,T,F,Metabolism,FALSE,T,TRUE,NA,/Users/martincz/GitHub/COGS119/group_wi26_naive_theories/analysis/../data/raw_data/p1fu5vcb0jw_1772141927155.csv
NA,1081,html-keyboard-response,113,2.0.0,368764,p1fu5vcb0jw,gecko,NA,<p>The next 20 statements will be about <b>Thermodynamics</b>. Press any key to continue.</p>,NA,NA,NA,NA,NA,NA,NA,NA,/Users/martincz/GitHub/COGS119/group_wi26_naive_theories/analysis/../data/raw_data/p1fu5vcb0jw_1772141927155.csv
NA,4064,html-keyboard-response,114,2.0.0,372829,p1fu5vcb0jw,gecko,m,"<div style=""font-size:30pt;"">Cold objects transfer heat to warm objects.</div>",Thermodynamics,F,F,Heat transfer,TRUE,F,TRUE,NA,/Users/martincz/GitHub/COGS119/group_wi26_naive_theories/analysis/../data/raw_data/p1fu5vcb0jw_1772141927155.csv
NA,4210,html-keyboard-response,115,2.0.0,377547,p1fu5vcb0jw,gecko,z,"<div style=""font-size:30pt;"">Water transfers heat to steam.</div>",Thermodynamics,F,T,Heat transfer,FALSE,T,FALSE,NA,/Users/martincz/GitHub/COGS119/group_wi26_naive_theories/analysis/../data/raw_data/p1fu5vcb0jw_1772141927155.csv
NA,4869,html-keyboard-response,116,2.0.0,382919,p1fu5vcb0jw,gecko,z,"<div style=""font-size:30pt;"">Cold objects transfer heat to even colder objects.</div>",Thermodynamics,T,F,Heat transfer,FALSE,T,TRUE,NA,/Users/martincz/GitHub/COGS119/group_wi26_naive_theories/analysis/../data/raw_data/p1fu5vcb0jw_1772141927155.csv
NA,1296,html-keyboard-response,117,2.0.0,384725,p1fu5vcb0jw,gecko,z,"<div style=""font-size:30pt;"">Ovens produce heat.</div>",Thermodynamics,T,T,Heat source,TRUE,T,TRUE,NA,/Users/martincz/GitHub/COGS119/group_wi26_naive_theories/analysis/../data/raw_data/p1fu5vcb0jw_1772141927155.csv
NA,1391,html-keyboard-response,118,2.0.0,386624,p1fu5vcb0jw,gecko,m,"<div style=""font-size:30pt;"">Heat increases an object's weight.</div>",Thermodynamics,F,T,Thermal expansion,FALSE,F,TRUE,NA,/Users/martincz/GitHub/COGS119/group_wi26_naive_theories/analysis/../data/raw_data/p1fu5vcb0jw_1772141927155.csv
NA,1597,html-keyboard-response,119,2.0.0,388730,p1fu5vcb0jw,gecko,m,"<div style=""font-size:30pt;"">Heat increases an object's color.</div>",Thermodynamics,F,F,Thermal expansion,TRUE,F,TRUE,NA,/Users/martincz/GitHub/COGS119/group_wi26_naive_theories/analysis/../data/raw_data/p1fu5vcb0jw_1772141927155.csv
NA,1698,html-keyboard-response,120,2.0.0,390937,p1fu5vcb0jw,gecko,z,"<div style=""font-size:30pt;"">The sun has heat.</div>",Thermodynamics,T,T,Heat,TRUE,T,TRUE,NA,/Users/martincz/GitHub/COGS119/group_wi26_naive_theories/analysis/../data/raw_data/p1fu5vcb0jw_1772141927155.csv
NA,1723,html-keyboard-response,121,2.0.0,393172,p1fu5vcb0jw,gecko,z,"<div style=""font-size:30pt;"">Ice has a lower temperature than water.</div>",Thermodynamics,T,T,Temperature,TRUE,T,TRUE,NA,/Users/martincz/GitHub/COGS119/group_wi26_naive_theories/analysis/../data/raw_data/p1fu5vcb0jw_1772141927155.csv
NA,1649,html-keyboard-response,122,2.0.0,395333,p1fu5vcb0jw,gecko,t,"<div style=""font-size:30pt;"">Press T if you are paying attention. Do not press z or m.</div>",Thermodynamics,T3,T3,AttentionCheck,TRUE,T3,TRUE,NA,/Users/martincz/GitHub/COGS119/group_wi26_naive_theories/analysis/../data/raw_data/p1fu5vcb0jw_1772141927155.csv
NA,1996,html-keyboard-response,123,2.0.0,397834,p1fu5vcb0jw,gecko,m,"<div style=""font-size:30pt;"">Heat increases an object's size.</div>",Thermodynamics,T,F,Thermal expansion,FALSE,F,FALSE,NA,/Users/martincz/GitHub/COGS119/group_wi26_naive_theories/analysis/../data/raw_data/p1fu5vcb0jw_1772141927155.csv
NA,3771,html-keyboard-response,124,2.0.0,402118,p1fu5vcb0jw,gecko,m,"<div style=""font-size:30pt;"">Boiling water has a lower temperature than steam.</div>",Thermodynamics,T,F,Temperature,FALSE,F,FALSE,NA,/Users/martincz/GitHub/COGS119/group_wi26_naive_theories/analysis/../data/raw_data/p1fu5vcb0jw_1772141927155.csv
NA,3458,html-keyboard-response,125,2.0.0,406082,p1fu5vcb0jw,gecko,m,"<div style=""font-size:30pt;"">Two cups of ice have a lower temperature than one.</div>",Thermodynamics,F,T,Temperature,FALSE,F,TRUE,NA,/Users/martincz/GitHub/COGS119/group_wi26_naive_theories/analysis/../data/raw_data/p1fu5vcb0jw_1772141927155.csv
NA,1267,html-keyboard-response,126,2.0.0,407863,p1fu5vcb0jw,gecko,m,"<div style=""font-size:30pt;"">Gravity has heat.</div>",Thermodynamics,F,F,Heat,TRUE,F,TRUE,NA,/Users/martincz/GitHub/COGS119/group_wi26_naive_theories/analysis/../data/raw_data/p1fu5vcb0jw_1772141927155.csv
NA,1318,html-keyboard-response,127,2.0.0,409684,p1fu5vcb0jw,gecko,m,"<div style=""font-size:30pt;"">Rain produces heat.</div>",Thermodynamics,F,F,Heat source,TRUE,F,TRUE,NA,/Users/martincz/GitHub/COGS119/group_wi26_naive_theories/analysis/../data/raw_data/p1fu5vcb0jw_1772141927155.csv
NA,1241,html-keyboard-response,128,2.0.0,411435,p1fu5vcb0jw,gecko,m,"<div style=""font-size:30pt;"">Coats produce heat.</div>",Thermodynamics,F,T,Heat source,FALSE,F,TRUE,NA,/Users/martincz/GitHub/COGS119/group_wi26_naive_theories/analysis/../data/raw_data/p1fu5vcb0jw_1772141927155.csv
NA,987,html-keyboard-response,129,2.0.0,412936,p1fu5vcb0jw,gecko,z,"<div style=""font-size:30pt;"">Atoms have heat.</div>",Thermodynamics,F,T,Heat,FALSE,T,FALSE,NA,/Users/martincz/GitHub/COGS119/group_wi26_naive_theories/analysis/../data/raw_data/p1fu5vcb0jw_1772141927155.csv
NA,2228,html-keyboard-response,130,2.0.0,415667,p1fu5vcb0jw,gecko,m,"<div style=""font-size:30pt;"">Steam has a lower temperature than ice.</div>",Thermodynamics,F,F,Temperature,TRUE,F,TRUE,NA,/Users/martincz/GitHub/COGS119/group_wi26_naive_theories/analysis/../data/raw_data/p1fu5vcb0jw_1772141927155.csv
NA,1294,html-keyboard-response,131,2.0.0,417466,p1fu5vcb0jw,gecko,m,"<div style=""font-size:30pt;"">Ice has heat.</div>",Thermodynamics,T,F,Heat,FALSE,F,FALSE,NA,/Users/martincz/GitHub/COGS119/group_wi26_naive_theories/analysis/../data/raw_data/p1fu5vcb0jw_1772141927155.csv
NA,3069,html-keyboard-response,132,2.0.0,421048,p1fu5vcb0jw,gecko,z,"<div style=""font-size:30pt;"">Heat increases an object's temperature.</div>",Thermodynamics,T,T,Thermal expansion,TRUE,T,TRUE,NA,/Users/martincz/GitHub/COGS119/group_wi26_naive_theories/analysis/../data/raw_data/p1fu5vcb0jw_1772141927155.csv
NA,1477,html-keyboard-response,133,2.0.0,423031,p1fu5vcb0jw,gecko,z,"<div style=""font-size:30pt;"">Pressure produces heat.</div>",Thermodynamics,T,F,Heat source,FALSE,T,TRUE,NA,/Users/martincz/GitHub/COGS119/group_wi26_naive_theories/analysis/../data/raw_data/p1fu5vcb0jw_1772141927155.csv
NA,5665,html-keyboard-response,134,2.0.0,429204,p1fu5vcb0jw,gecko,z,"<div style=""font-size:30pt;"">Water transfers heat to ice.</div>",Thermodynamics,T,T,Heat transfer,TRUE,T,TRUE,NA,/Users/martincz/GitHub/COGS119/group_wi26_naive_theories/analysis/../data/raw_data/p1fu5vcb0jw_1772141927155.csv
NA,685,html-keyboard-response,135,2.0.0,430391,p1fu5vcb0jw,gecko,NA,<p>The next 20 statements will be about <b>Germs</b>. Press any key to continue.</p>,NA,NA,NA,NA,NA,NA,NA,NA,/Users/martincz/GitHub/COGS119/group_wi26_naive_theories/analysis/../data/raw_data/p1fu5vcb0jw_1772141927155.csv
NA,1504,html-keyboard-response,136,2.0.0,431896,p1fu5vcb0jw,gecko,z,"<div style=""font-size:30pt;"">Germs have a shape.</div>",Germs,T,T,Microbe,TRUE,T,TRUE,NA,/Users/martincz/GitHub/COGS119/group_wi26_naive_theories/analysis/../data/raw_data/p1fu5vcb0jw_1772141927155.csv
NA,1054,html-keyboard-response,137,2.0.0,433457,p1fu5vcb0jw,gecko,m,"<div style=""font-size:30pt;"">Germs have an odor.</div>",Germs,F,T,Microbe,FALSE,F,TRUE,NA,/Users/martincz/GitHub/COGS119/group_wi26_naive_theories/analysis/../data/raw_data/p1fu5vcb0jw_1772141927155.csv
NA,1252,html-keyboard-response,138,2.0.0,435216,p1fu5vcb0jw,gecko,z,"<div style=""font-size:30pt;"">Being depressed can make a person sick.</div>",Germs,T,F,Contagion,FALSE,T,TRUE,NA,/Users/martincz/GitHub/COGS119/group_wi26_naive_theories/analysis/../data/raw_data/p1fu5vcb0jw_1772141927155.csv
NA,1107,html-keyboard-response,139,2.0.0,436828,p1fu5vcb0jw,gecko,z,"<div style=""font-size:30pt;"">Dish sponges contain germs.</div>",Germs,T,F,Contamination,FALSE,T,TRUE,NA,/Users/martincz/GitHub/COGS119/group_wi26_naive_theories/analysis/../data/raw_data/p1fu5vcb0jw_1772141927155.csv
NA,1018,html-keyboard-response,140,2.0.0,438357,p1fu5vcb0jw,gecko,m,"<div style=""font-size:30pt;"">Urine contains germs.</div>",Germs,F,T,Contamination,FALSE,F,TRUE,NA,/Users/martincz/GitHub/COGS119/group_wi26_naive_theories/analysis/../data/raw_data/p1fu5vcb0jw_1772141927155.csv
NA,1007,html-keyboard-response,141,2.0.0,439874,p1fu5vcb0jw,gecko,z,"<div style=""font-size:30pt;"">Germs have feelings.</div>",Germs,F,F,Microbe,TRUE,T,FALSE,NA,/Users/martincz/GitHub/COGS119/group_wi26_naive_theories/analysis/../data/raw_data/p1fu5vcb0jw_1772141927155.csv
NA,2628,html-keyboard-response,142,2.0.0,443008,p1fu5vcb0jw,gecko,z,"<div style=""font-size:30pt;"">Germs enter the body through cuts.</div>",Germs,T,T,Infection,TRUE,T,TRUE,NA,/Users/martincz/GitHub/COGS119/group_wi26_naive_theories/analysis/../data/raw_data/p1fu5vcb0jw_1772141927155.csv
NA,3044,html-keyboard-response,143,2.0.0,446558,p1fu5vcb0jw,gecko,m,"<div style=""font-size:30pt;"">Sunshine contains germs.</div>",Germs,F,F,Contamination,TRUE,F,TRUE,NA,/Users/martincz/GitHub/COGS119/group_wi26_naive_theories/analysis/../data/raw_data/p1fu5vcb0jw_1772141927155.csv
NA,1612,html-keyboard-response,144,2.0.0,448676,p1fu5vcb0jw,gecko,m,"<div style=""font-size:30pt;"">Being happy can make a person sick.</div>",Germs,F,F,Contagion,TRUE,F,TRUE,NA,/Users/martincz/GitHub/COGS119/group_wi26_naive_theories/analysis/../data/raw_data/p1fu5vcb0jw_1772141927155.csv
NA,6060,html-keyboard-response,145,2.0.0,455249,p1fu5vcb0jw,gecko,m,"<div style=""font-size:30pt;"">Germs enter the body through the skin.</div>",Germs,F,T,Infection,FALSE,F,TRUE,NA,/Users/martincz/GitHub/COGS119/group_wi26_naive_theories/analysis/../data/raw_data/p1fu5vcb0jw_1772141927155.csv
NA,1393,html-keyboard-response,146,2.0.0,457149,p1fu5vcb0jw,gecko,m,"<div style=""font-size:30pt;"">Germs enter the body through the hair.</div>",Germs,F,F,Infection,TRUE,F,TRUE,NA,/Users/martincz/GitHub/COGS119/group_wi26_naive_theories/analysis/../data/raw_data/p1fu5vcb0jw_1772141927155.csv
NA,1184,html-keyboard-response,147,2.0.0,458840,p1fu5vcb0jw,gecko,m,"<div style=""font-size:30pt;"">Water kills germs.</div>",Germs,F,T,Sterilization,FALSE,F,TRUE,NA,/Users/martincz/GitHub/COGS119/group_wi26_naive_theories/analysis/../data/raw_data/p1fu5vcb0jw_1772141927155.csv
NA,1422,html-keyboard-response,148,2.0.0,460778,p1fu5vcb0jw,gecko,z,"<div style=""font-size:30pt;"">Being cold can make a person sick.</div>",Germs,F,T,Contagion,FALSE,T,FALSE,NA,/Users/martincz/GitHub/COGS119/group_wi26_naive_theories/analysis/../data/raw_data/p1fu5vcb0jw_1772141927155.csv
NA,1733,html-keyboard-response,149,2.0.0,463020,p1fu5vcb0jw,gecko,t,"<div style=""font-size:30pt;"">Press T if you are paying attention. Do not press z or m.</div>",Germs,T3,T3,AttentionCheck,TRUE,T3,TRUE,NA,/Users/martincz/GitHub/COGS119/group_wi26_naive_theories/analysis/../data/raw_data/p1fu5vcb0jw_1772141927155.csv
NA,2276,html-keyboard-response,150,2.0.0,465808,p1fu5vcb0jw,gecko,z,"<div style=""font-size:30pt;"">Germs have DNA.</div>",Germs,T,F,Microbe,FALSE,T,TRUE,NA,/Users/martincz/GitHub/COGS119/group_wi26_naive_theories/analysis/../data/raw_data/p1fu5vcb0jw_1772141927155.csv
NA,939,html-keyboard-response,151,2.0.0,467253,p1fu5vcb0jw,gecko,z,"<div style=""font-size:30pt;"">Heat kills germs.</div>",Germs,T,F,Sterilization,FALSE,T,TRUE,NA,/Users/martincz/GitHub/COGS119/group_wi26_naive_theories/analysis/../data/raw_data/p1fu5vcb0jw_1772141927155.csv
NA,802,html-keyboard-response,152,2.0.0,468566,p1fu5vcb0jw,gecko,m,"<div style=""font-size:30pt;"">Kindness kills germs.</div>",Germs,F,F,Sterilization,TRUE,F,TRUE,NA,/Users/martincz/GitHub/COGS119/group_wi26_naive_theories/analysis/../data/raw_data/p1fu5vcb0jw_1772141927155.csv
NA,4822,html-keyboard-response,153,2.0.0,473895,p1fu5vcb0jw,gecko,z,"<div style=""font-size:30pt;"">Being sneezed on can make a person sick.</div>",Germs,T,T,Contagion,TRUE,T,TRUE,NA,/Users/martincz/GitHub/COGS119/group_wi26_naive_theories/analysis/../data/raw_data/p1fu5vcb0jw_1772141927155.csv
NA,1093,html-keyboard-response,154,2.0.0,475492,p1fu5vcb0jw,gecko,z,"<div style=""font-size:30pt;"">Alcohol kills germs.</div>",Germs,T,T,Sterilization,TRUE,T,TRUE,NA,/Users/martincz/GitHub/COGS119/group_wi26_naive_theories/analysis/../data/raw_data/p1fu5vcb0jw_1772141927155.csv
NA,1456,html-keyboard-response,155,2.0.0,477454,p1fu5vcb0jw,gecko,z,"<div style=""font-size:30pt;"">Germs enter the body through the eyes.</div>",Germs,T,F,Infection,FALSE,T,TRUE,NA,/Users/martincz/GitHub/COGS119/group_wi26_naive_theories/analysis/../data/raw_data/p1fu5vcb0jw_1772141927155.csv
NA,4899,html-keyboard-response,156,2.0.0,482856,p1fu5vcb0jw,gecko,z,"<div style=""font-size:30pt;"">Rotting meat contains germs.</div>",Germs,T,T,Contamination,TRUE,T,TRUE,NA,/Users/martincz/GitHub/COGS119/group_wi26_naive_theories/analysis/../data/raw_data/p1fu5vcb0jw_1772141927155.csv
NA,1380,html-keyboard-response,157,2.0.0,484750,p1fu5vcb0jw,gecko,NA,"
      <p>Thank you for completing this portion of the 
      experiment. We now have a few  questions for you.</p>
      <p>Press any key to proceed, and click submit once you are 
      done with the questions. Thanks! </p>
",NA,NA,NA,NA,NA,NA,NA,NA,/Users/martincz/GitHub/COGS119/group_wi26_naive_theories/analysis/../data/raw_data/p1fu5vcb0jw_1772141927155.csv
NA,3097,survey-multi-choice,158,null,487850,p1fu5vcb0jw,gecko,"{""grade"":""4th Year"",""gender"":""Female""}",NA,NA,NA,NA,NA,NA,NA,NA,"[0,1]",/Users/martincz/GitHub/COGS119/group_wi26_naive_theories/analysis/../data/raw_data/p1fu5vcb0jw_1772141927155.csv
NA,35414,survey,159,4.0.0,523366,p1fu5vcb0jw,gecko,"{""age"":22,""major"":""CBN"",""experiment_topic"":""I think it was testing whether or not naive theories stick to scientific theories."",""technical_difficulties"":""no""}",NA,NA,NA,NA,NA,NA,NA,NA,NA,/Users/martincz/GitHub/COGS119/group_wi26_naive_theories/analysis/../data/raw_data/p1fu5vcb0jw_1772141927155.csv
TRUE,4713435,fullscreen,0,null,4714344,p2f848uts5v,seal,NA,NA,NA,NA,NA,NA,NA,NA,NA,NA,/Users/martincz/GitHub/COGS119/group_wi26_naive_theories/analysis/../data/raw_data/p2f848uts5v_1772176653172.csv
NA,2692,survey-text,1,2.0.0,4717040,p2f848uts5v,seal,"{""participant_id"":""seal""}",NA,NA,NA,NA,NA,NA,NA,NA,NA,/Users/martincz/GitHub/COGS119/group_wi26_naive_theories/analysis/../data/raw_data/p2f848uts5v_1772176653172.csv
NA,7185,html-keyboard-response,2,2.0.0,4724227,p2f848uts5v,seal,NA,<p>Welcome to the experiment.<br><br>You will see 140 statements about various topics.<br><br>Please read the statements and respond with whether you think they are <b>true (Z key)</b> or <b>false (M key)</b> as quickly as possible!<br><br>Press any key to begin.</p>,NA,NA,NA,NA,NA,NA,NA,NA,/Users/martincz/GitHub/COGS119/group_wi26_naive_theories/analysis/../data/raw_data/p2f848uts5v_1772176653172.csv
NA,3198,html-keyboard-response,3,2.0.0,4727426,p2f848uts5v,seal,NA,<p>The next 20 statements will be about <b>Evolution</b>. Press any key to continue.</p>,NA,NA,NA,NA,NA,NA,NA,NA,/Users/martincz/GitHub/COGS119/group_wi26_naive_theories/analysis/../data/raw_data/p2f848uts5v_1772176653172.csv
NA,2674,html-keyboard-response,4,2.0.0,4730102,p2f848uts5v,seal,z,"<div style=""font-size:30pt;"">Humans are more closely related to apes than monkeys.</div>",Evolution,T,T,Common ancestry,TRUE,T,TRUE,NA,/Users/martincz/GitHub/COGS119/group_wi26_naive_theories/analysis/../data/raw_data/p2f848uts5v_1772176653172.csv
NA,1446,html-keyboard-response,5,2.0.0,4732051,p2f848uts5v,seal,m,"<div style=""font-size:30pt;"">Computer viruses evolve.</div>",Evolution,T,F,Adaptation,FALSE,F,FALSE,NA,/Users/martincz/GitHub/COGS119/group_wi26_naive_theories/analysis/../data/raw_data/p2f848uts5v_1772176653172.csv
NA,2931,html-keyboard-response,6,2.0.0,4735485,p2f848uts5v,seal,z,"<div style=""font-size:30pt;"">Whales are more closely related to humans than fish.</div>",Evolution,T,F,Common ancestry,FALSE,T,TRUE,NA,/Users/martincz/GitHub/COGS119/group_wi26_naive_theories/analysis/../data/raw_data/p2f848uts5v_1772176653172.csv
NA,3352,html-keyboard-response,7,2.0.0,4739339,p2f848uts5v,seal,z,"<div style=""font-size:30pt;"">Most organisms live in temperate climates.</div>",Evolution,F,F,Selection,TRUE,T,FALSE,NA,/Users/martincz/GitHub/COGS119/group_wi26_naive_theories/analysis/../data/raw_data/p2f848uts5v_1772176653172.csv
NA,1120,html-keyboard-response,8,2.0.0,4740960,p2f848uts5v,seal,m,"<div style=""font-size:30pt;"">Evolution requires within-species variation.</div>",Evolution,T,F,Variation,FALSE,F,FALSE,NA,/Users/martincz/GitHub/COGS119/group_wi26_naive_theories/analysis/../data/raw_data/p2f848uts5v_1772176653172.csv
NA,462,html-keyboard-response,9,2.0.0,4741925,p2f848uts5v,seal,z,"<div style=""font-size:30pt;"">Whales are more closely related to plants than fish.</div>",Evolution,F,F,Common ancestry,TRUE,T,FALSE,NA,/Users/martincz/GitHub/COGS119/group_wi26_naive_theories/analysis/../data/raw_data/p2f848uts5v_1772176653172.csv
NA,461,html-keyboard-response,10,2.0.0,4742889,p2f848uts5v,seal,m,"<div style=""font-size:30pt;"">Evolution requires climate stability.</div>",Evolution,F,F,Variation,TRUE,F,TRUE,NA,/Users/martincz/GitHub/COGS119/group_wi26_naive_theories/analysis/../data/raw_data/p2f848uts5v_1772176653172.csv
NA,575,html-keyboard-response,11,2.0.0,4743966,p2f848uts5v,seal,m,"<div style=""font-size:30pt;"">Apes are more closely related to monkeys than humans.</div>",Evolution,F,T,Common ancestry,FALSE,F,TRUE,NA,/Users/martincz/GitHub/COGS119/group_wi26_naive_theories/analysis/../data/raw_data/p2f848uts5v_1772176653172.csv
NA,2011,html-keyboard-response,12,2.0.0,4746480,p2f848uts5v,seal,z,"<div style=""font-size:30pt;"">Biological species evolve.</div>",Evolution,T,T,Adaptation,TRUE,T,TRUE,NA,/Users/martincz/GitHub/COGS119/group_wi26_naive_theories/analysis/../data/raw_data/p2f848uts5v_1772176653172.csv
NA,1294,html-keyboard-response,13,2.0.0,4748276,p2f848uts5v,seal,m,"<div style=""font-size:30pt;"">Inanimate objects evolve.</div>",Evolution,F,F,Adaptation,TRUE,F,TRUE,NA,/Users/martincz/GitHub/COGS119/group_wi26_naive_theories/analysis/../data/raw_data/p2f848uts5v_1772176653172.csv
NA,1166,html-keyboard-response,14,2.0.0,4749944,p2f848uts5v,seal,z,"<div style=""font-size:30pt;"">Evolution requires long periods of time.</div>",Evolution,F,T,Variation,FALSE,T,FALSE,NA,/Users/martincz/GitHub/COGS119/group_wi26_naive_theories/analysis/../data/raw_data/p2f848uts5v_1772176653172.csv
NA,1774,html-keyboard-response,15,2.0.0,4752220,p2f848uts5v,seal,t,"<div style=""font-size:30pt;"">Press T if you are paying attention. Do not press z or m.</div>",Evolution,T3,T3,AttentionCheck,TRUE,T3,TRUE,NA,/Users/martincz/GitHub/COGS119/group_wi26_naive_theories/analysis/../data/raw_data/p2f848uts5v_1772176653172.csv
NA,4952,html-keyboard-response,16,2.0.0,4757675,p2f848uts5v,seal,m,"<div style=""font-size:30pt;"">Most organisms have plenty to eat.</div>",Evolution,F,T,Selection,FALSE,F,TRUE,NA,/Users/martincz/GitHub/COGS119/group_wi26_naive_theories/analysis/../data/raw_data/p2f848uts5v_1772176653172.csv
NA,1808,html-keyboard-response,17,2.0.0,4759986,p2f848uts5v,seal,m,"<div style=""font-size:30pt;"">Humans are descended from tree-dwelling creatures.</div>",Evolution,T,T,Phylogeny,TRUE,F,FALSE,NA,/Users/martincz/GitHub/COGS119/group_wi26_naive_theories/analysis/../data/raw_data/p2f848uts5v_1772176653172.csv
