"success","rt","trial_type","trial_index","plugin_version","time_elapsed","random_id","participant_id","response","stimulus","category","correct_response","naive_theory","concept","is_consistent","response_tf","correct","question_order"
"true","1872","fullscreen","0","null","2877","p7nuv8oj173","wolf","","","","","","","","","",""
"","19150","survey-text","1","2.0.0","22033","p7nuv8oj173","wolf","{""participant_id"":""wolf""}","","","","","","","","",""
"","5871","html-keyboard-response","2","2.0.0","27905","p7nuv8oj173","wolf","Enter","<p>Welcome to the experiment.<br><br>You will see 140 statements about various topics.<br><br>Please read the statements and respond with whether you think they are <b>true (Z key)</b> or <b>false (M key)</b> as quickly as possible!<br><br>Press any key to begin.</p>","","","","","","","",""
"","1793","html-keyboard-response","3","2.0.0","29699","p7nuv8oj173","wolf","Enter","<p>The next 20 statements will be about <b>Waves</b>. Press any key to continue.</p>","","","","","","","",""
"","1758","html-keyboard-response","4","2.0.0","31459","p7nuv8oj173","wolf","z","<div style=""font-size:30pt;"">Mirrors reflect light.</div>","Waves","T","T","Reflection","true","T","true",""
"","1247","html-keyboard-response","5","2.0.0","33208","p7nuv8oj173","wolf","m","<div style=""font-size:30pt;"">Foam reflects sound.</div>","Waves","F","F","Reflection","true","F","true",""
"","4987","html-keyboard-response","6","2.0.0","38697","p7nuv8oj173","wolf","z","<div style=""font-size:30pt;"">White light contains all colors of light.</div>","Waves","T","F","Light","false","T","true",""
"","2543","html-keyboard-response","7","2.0.0","41742","p7nuv8oj173","wolf","m","<div style=""font-size:30pt;"">Red objects absorb blue light.</div>","Waves","T","F","Color","false","F","false",""
"","1684","html-keyboard-response","8","2.0.0","43928","p7nuv8oj173","wolf","m","<div style=""font-size:30pt;"">Shadows contain all colors of light.</div>","Waves","F","F","Light","true","F","true",""
"","3463","html-keyboard-response","9","2.0.0","47894","p7nuv8oj173","wolf","m","<div style=""font-size:30pt;"">Red objects reflect blue light.</div>","Waves","F","F","Color","true","F","true",""
"","4520","html-keyboard-response","10","2.0.0","52916","p7nuv8oj173","wolf","m","<div style=""font-size:30pt;"">Rainbows contain all colors of light.</div>","Waves","T","T","Light","true","F","false",""
"","1131","html-keyboard-response","11","2.0.0","54550","p7nuv8oj173","wolf","m","<div style=""font-size:30pt;"">Sound travels through a vacuum.</div>","Waves","F","T","Propagation","false","F","true",""
"","1813","html-keyboard-response","12","2.0.0","56866","p7nuv8oj173","wolf","z","<div style=""font-size:30pt;"">Prisms reflect light.</div>","Waves","F","T","Reflection","false","T","false",""
"","5177","html-keyboard-response","13","2.0.0","62546","p7nuv8oj173","wolf","m","<div style=""font-size:30pt;"">Black objects reflect all colors of light.</div>","Waves","F","T","Light","false","F","true",""
"","5015","html-keyboard-response","14","2.0.0","68063","p7nuv8oj173","wolf","m","<div style=""font-size:30pt;"">Sound travels through metal.</div>","Waves","T","F","Propagation","false","F","false",""
"","2315","html-keyboard-response","15","2.0.0","70880","p7nuv8oj173","wolf","t","<div style=""font-size:30pt;"">Press T if you are paying attention. Do not press z or m.</div>","Waves","T3","T3","AttentionCheck","true","T3","true",""
"","1063","html-keyboard-response","16","2.0.0","72445","p7nuv8oj173","wolf","m","<div style=""font-size:30pt;"">Mirrors reflect sound.</div>","Waves","T","F","Reflection","false","F","false",""
"","3800","html-keyboard-response","17","2.0.0","76748","p7nuv8oj173","wolf","z","<div style=""font-size:30pt;"">Sounds can be direct or reflected.</div>","Waves","T","F","Sound","false","T","true",""
"","775","html-keyboard-response","18","2.0.0","78026","p7nuv8oj173","wolf","z","<div style=""font-size:30pt;"">Sound travels through air.</div>","Waves","T","T","Propagation","true","T","true",""
"","2375","html-keyboard-response","19","2.0.0","80903","p7nuv8oj173","wolf","z","<div style=""font-size:30pt;"">Red objects reflect red light.</div>","Waves","T","T","Color","true","T","true",""
"","1198","html-keyboard-response","20","2.0.0","82603","p7nuv8oj173","wolf","z","<div style=""font-size:30pt;"">Sounds can be near or far.</div>","Waves","F","T","Sound","false","T","false",""
"","708","html-keyboard-response","21","2.0.0","83813","p7nuv8oj173","wolf","m","<div style=""font-size:30pt;"">Sound travels through foam.</div>","Waves","F","F","Propagation","true","F","true",""
"","1202","html-keyboard-response","22","2.0.0","85517","p7nuv8oj173","wolf","m","<div style=""font-size:30pt;"">Sounds can be dead or alive.</div>","Waves","F","F","Sound","true","F","true",""
"","2303","html-keyboard-response","23","2.0.0","88322","p7nuv8oj173","wolf","m","<div style=""font-size:30pt;"">Red objects absorb red light.</div>","Waves","F","T","Color","false","F","true",""
"","3891","html-keyboard-response","24","2.0.0","92715","p7nuv8oj173","wolf","z","<div style=""font-size:30pt;"">Sounds can be loud or quiet.</div>","Waves","T","T","Sound","true","T","true",""
"","1095","html-keyboard-response","25","2.0.0","94313","p7nuv8oj173","wolf"," ","<p>The next 20 statements will be about <b>Mechanics</b>. Press any key to continue.</p>","","","","","","","",""
"","2021","html-keyboard-response","26","2.0.0","96336","p7nuv8oj173","wolf","z","<div style=""font-size:30pt;"">Momentum can be transferred from one object to another.</div>","Mechanics","T","T","Momentum","true","T","true",""
"","4276","html-keyboard-response","27","2.0.0","101114","p7nuv8oj173","wolf","z","<div style=""font-size:30pt;"">Anvils fall through air faster than feathers.</div>","Mechanics","T","T","Gravity","true","T","true",""
"","4487","html-keyboard-response","28","2.0.0","106105","p7nuv8oj173","wolf","m","<div style=""font-size:30pt;"">A moving bullet loses force.</div>","Mechanics","F","T","Velocity","false","F","true",""
"","3761","html-keyboard-response","29","2.0.0","110367","p7nuv8oj173","wolf","m","<div style=""font-size:30pt;"">Constant force can yield constant rest.</div>","Mechanics","T","F","Acceleration","false","F","false",""
"","1303","html-keyboard-response","30","2.0.0","112173","p7nuv8oj173","wolf","m","<div style=""font-size:30pt;"">Forces can be male or female.</div>","Mechanics","F","F","Force","true","F","true",""
"","1931","html-keyboard-response","31","2.0.0","114606","p7nuv8oj173","wolf","z","<div style=""font-size:30pt;"">Constant acceleration requires constant force.</div>","Mechanics","T","T","Acceleration","true","T","true",""
"","2052","html-keyboard-response","32","2.0.0","117160","p7nuv8oj173","wolf","m","<div style=""font-size:30pt;"">Bright objects fall through air faster than dark objects.</div>","Mechanics","F","F","Gravity","true","F","true",""
"","985","html-keyboard-response","33","2.0.0","118648","p7nuv8oj173","wolf","z","<div style=""font-size:30pt;"">Forces can be strong or weak.</div>","Mechanics","T","T","Force","true","T","true",""
"","1005","html-keyboard-response","34","2.0.0","120155","p7nuv8oj173","wolf","z","<div style=""font-size:30pt;"">Energy can be transferred from one object to another.</div>","Mechanics","T","F","Momentum","false","T","true",""
"","2205","html-keyboard-response","35","2.0.0","122863","p7nuv8oj173","wolf","z","<div style=""font-size:30pt;"">Forces can be transferred from one object to another.</div>","Mechanics","F","T","Momentum","false","T","false",""
"","1547","html-keyboard-response","36","2.0.0","124912","p7nuv8oj173","wolf","z","<div style=""font-size:30pt;"">Forces can be balanced or unbalanced.</div>","Mechanics","T","F","Force","false","T","true",""
"","1176","html-keyboard-response","37","2.0.0","126590","p7nuv8oj173","wolf","m","<div style=""font-size:30pt;"">Pointy objects fall through air faster than flat objects.</div>","Mechanics","T","F","Gravity","false","F","false",""
"","2805","html-keyboard-response","38","2.0.0","129897","p7nuv8oj173","wolf","z","<div style=""font-size:30pt;"">A moving bullet loses height.</div>","Mechanics","T","F","Velocity","false","T","true",""
"","1366","html-keyboard-response","39","2.0.0","131766","p7nuv8oj173","wolf","z","<div style=""font-size:30pt;"">Constant speed requires constant acceleration.</div>","Mechanics","F","F","Acceleration","true","T","false",""
"","3364","html-keyboard-response","40","2.0.0","135631","p7nuv8oj173","wolf","m","<div style=""font-size:30pt;"">Color can be transferred from one object to another.</div>","Mechanics","F","F","Momentum","true","F","true",""
"","3779","html-keyboard-response","41","2.0.0","139912","p7nuv8oj173","wolf","z","<div style=""font-size:30pt;"">A moving bullet loses speed.</div>","Mechanics","T","T","Velocity","true","T","true",""
"","3698","html-keyboard-response","42","2.0.0","144112","p7nuv8oj173","wolf","z","<div style=""font-size:30pt;"">Heavy balls fall through air faster than light balls.</div>","Mechanics","F","T","Gravity","false","T","false",""
"","3596","html-keyboard-response","43","2.0.0","148210","p7nuv8oj173","wolf","m","<div style=""font-size:30pt;"">A moving bullet loses weight.</div>","Mechanics","F","F","Velocity","true","F","true",""
"","1597","html-keyboard-response","44","2.0.0","150309","p7nuv8oj173","wolf","t","<div style=""font-size:30pt;"">Press T if you are paying attention. Do not press z or m.</div>","Mechanics","T3","T3","AttentionCheck","true","T3","true",""
"","4373","html-keyboard-response","45","2.0.0","155184","p7nuv8oj173","wolf","z","<div style=""font-size:30pt;"">Constant motion requires constant force.</div>","Mechanics","F","T","Acceleration","false","T","false",""
"","2666","html-keyboard-response","46","2.0.0","158352","p7nuv8oj173","wolf","m","<div style=""font-size:30pt;"">Forces can be straight or curved.</div>","Mechanics","F","T","Force","false","F","true",""
"","1149","html-keyboard-response","47","2.0.0","160003","p7nuv8oj173","wolf"," ","<p>The next 20 statements will be about <b>Genetics</b>. Press any key to continue.</p>","","","","","","","",""
"","4473","html-keyboard-response","48","2.0.0","164477","p7nuv8oj173","wolf","m","<div style=""font-size:30pt;"">Humans have more chromosomes than mosquitoes.</div>","Genetics","T","T","Chromosome","true","F","false",""
"","1830","html-keyboard-response","49","2.0.0","166811","p7nuv8oj173","wolf","m","<div style=""font-size:30pt;"">Viruses can change one's genome.</div>","Genetics","T","F","Mutation","false","F","false",""
"","2039","html-keyboard-response","50","2.0.0","169352","p7nuv8oj173","wolf","m","<div style=""font-size:30pt;"">Skin cells have more chromosomes than egg cells.</div>","Genetics","T","F","Chromosome","false","F","false",""
"","1235","html-keyboard-response","51","2.0.0","171089","p7nuv8oj173","wolf","m","<div style=""font-size:30pt;"">Exercise can change one's genome.</div>","Genetics","F","T","Mutation","false","F","true",""
"","1807","html-keyboard-response","52","2.0.0","173399","p7nuv8oj173","wolf","m","<div style=""font-size:30pt;"">Immunity to chickenpox is heritable.</div>","Genetics","F","T","Heritability","false","F","true",""
"","2397","html-keyboard-response","53","2.0.0","176297","p7nuv8oj173","wolf","m","<div style=""font-size:30pt;"">Genes that code for eye color can be found in tears.</div>","Genetics","F","T","Expression","false","F","true",""
"","1716","html-keyboard-response","54","2.0.0","178514","p7nuv8oj173","wolf","z","<div style=""font-size:30pt;"">Two brown-eyed parents could have a blue-eyed baby.</div>","Genetics","T","F","Dominance","false","T","true",""
"","1185","html-keyboard-response","55","2.0.0","180201","p7nuv8oj173","wolf","m","<div style=""font-size:30pt;"">Adults have more chromosomes than children.</div>","Genetics","F","T","Chromosome","false","F","true",""
"","4725","html-keyboard-response","56","2.0.0","185428","p7nuv8oj173","wolf","m","<div style=""font-size:30pt;"">Two blue-eyed parents could have a brown-eyed baby.</div>","Genetics","F","F","Dominance","true","F","true",""
"","3613","html-keyboard-response","57","2.0.0","189542","p7nuv8oj173","wolf","z","<div style=""font-size:30pt;"">Genes that code for eye color can be found in hair.</div>","Genetics","F","F","Expression","true","T","false",""
"","1805","html-keyboard-response","58","2.0.0","191849","p7nuv8oj173","wolf","m","<div style=""font-size:30pt;"">Men have more chromosomes than women.</div>","Genetics","F","F","Chromosome","true","F","true",""
"","1284","html-keyboard-response","59","2.0.0","193635","p7nuv8oj173","wolf","t","<div style=""font-size:30pt;"">Press T if you are paying attention. Do not press z or m.</div>","Genetics","T3","T3","AttentionCheck","true","T3","true",""
"","1719","html-keyboard-response","60","2.0.0","195857","p7nuv8oj173","wolf","m","<div style=""font-size:30pt;"">Intelligence is heritable.</div>","Genetics","T","F","Heritability","false","F","false",""
"","1648","html-keyboard-response","61","2.0.0","198008","p7nuv8oj173","wolf","z","<div style=""font-size:30pt;"">Two brown-eyed parents could have a brown-eyed baby.</div>","Genetics","T","T","Dominance","true","T","true",""
"","2838","html-keyboard-response","62","2.0.0","201348","p7nuv8oj173","wolf","m","<div style=""font-size:30pt;"">Radiation can change one's genome.</div>","Genetics","T","T","Mutation","true","F","false",""
"","875","html-keyboard-response","63","2.0.0","202726","p7nuv8oj173","wolf","m","<div style=""font-size:30pt;"">Pierced ears are heritable.</div>","Genetics","F","F","Heritability","true","F","true",""
"","1094","html-keyboard-response","64","2.0.0","204321","p7nuv8oj173","wolf","m","<div style=""font-size:30pt;"">Sunscreen can change one's genome.</div>","Genetics","F","F","Mutation","true","F","true",""
"","919","html-keyboard-response","65","2.0.0","205742","p7nuv8oj173","wolf","z","<div style=""font-size:30pt;"">Hair color is heritable.</div>","Genetics","T","T","Heritability","true","T","true",""
"","2037","html-keyboard-response","66","2.0.0","208280","p7nuv8oj173","wolf","m","<div style=""font-size:30pt;"">A blue-eyed baby must have two blue-eyed parents.</div>","Genetics","F","T","Dominance","false","F","true",""
"","2967","html-keyboard-response","67","2.0.0","211749","p7nuv8oj173","wolf","m","<div style=""font-size:30pt;"">Genes that code for eye color can be found in the liver.</div>","Genetics","T","F","Expression","false","F","false",""
"","3476","html-keyboard-response","68","2.0.0","215727","p7nuv8oj173","wolf","z","<div style=""font-size:30pt;"">Genes that code for eye color can be found in the eye.</div>","Genetics","T","T","Expression","true","T","true",""
"","1341","html-keyboard-response","69","2.0.0","217571","p7nuv8oj173","wolf"," ","<p>The next 20 statements will be about <b>Fractions</b>. Press any key to continue.</p>","","","","","","","",""
"","6331","html-keyboard-response","70","2.0.0","223903","p7nuv8oj173","wolf","m","<div style=""font-size:30pt;"">There are numbers between 10 and 10.</div>","Fractions","F","F","Infinite density","true","F","true",""
"","2178","html-keyboard-response","71","2.0.0","226584","p7nuv8oj173","wolf","m","<div style=""font-size:30pt;"">1/3 plus 1/3 is 1/3.</div>","Fractions","F","F","Addition","true","F","true",""
"","2592","html-keyboard-response","72","2.0.0","229678","p7nuv8oj173","wolf","m","<div style=""font-size:30pt;"">2/3 plus 2/4 is 2/7.</div>","Fractions","F","T","Addition","false","F","true",""
"","2934","html-keyboard-response","73","2.0.0","233114","p7nuv8oj173","wolf","z","<div style=""font-size:30pt;"">All fractions are expressible as decimals.</div>","Fractions","F","T","Conversion","false","T","false",""
"","1270","html-keyboard-response","74","2.0.0","234886","p7nuv8oj173","wolf","z","<div style=""font-size:30pt;"">There are numbers between 1 and 3.</div>","Fractions","T","T","Infinite density","true","T","true",""
"","2635","html-keyboard-response","75","2.0.0","238023","p7nuv8oj173","wolf","z","<div style=""font-size:30pt;"">1/10 plus 1/10 is 1/5.</div>","Fractions","T","F","Addition","false","T","true",""
"","2546","html-keyboard-response","76","2.0.0","241072","p7nuv8oj173","wolf","m","<div style=""font-size:30pt;"">1/17 is greater than 1/9.</div>","Fractions","F","T","Ordering","false","F","true",""
"","10464","html-keyboard-response","77","2.0.0","252038","p7nuv8oj173","wolf","z","<div style=""font-size:30pt;"">All decimals are expressible as fractions.</div>","Fractions","T","T","Conversion","true","T","true",""
"","1428","html-keyboard-response","78","2.0.0","253969","p7nuv8oj173","wolf","m","<div style=""font-size:30pt;"">All fractions are expressible as integers.</div>","Fractions","F","F","Conversion","true","F","true",""
"","2949","html-keyboard-response","79","2.0.0","257420","p7nuv8oj173","wolf","z","<div style=""font-size:30pt;"">4 divided by 2/1 is 2.</div>","Fractions","T","T","Division","true","T","true",""
"","1250","html-keyboard-response","80","2.0.0","259173","p7nuv8oj173","wolf","z","<div style=""font-size:30pt;"">1/3 plus 1/3 is 2/3.</div>","Fractions","T","T","Addition","true","T","true",""
"","1063","html-keyboard-response","81","2.0.0","260738","p7nuv8oj173","wolf","t","<div style=""font-size:30pt;"">Press T if you are paying attention. Do not press z or m.</div>","Fractions","T3","T3","AttentionCheck","true","T3","true",""
"","2060","html-keyboard-response","82","2.0.0","263300","p7nuv8oj173","wolf","m","<div style=""font-size:30pt;"">8 divided by 2/1 is 3.</div>","Fractions","F","F","Division","true","F","true",""
"","1653","html-keyboard-response","83","2.0.0","265455","p7nuv8oj173","wolf","z","<div style=""font-size:30pt;"">1/13 is greater than 1/30.</div>","Fractions","T","F","Ordering","false","T","true",""
"","2138","html-keyboard-response","84","2.0.0","268095","p7nuv8oj173","wolf","m","<div style=""font-size:30pt;"">1/17 is greater than 16/17.</div>","Fractions","F","F","Ordering","true","F","true",""
"","2374","html-keyboard-response","85","2.0.0","270972","p7nuv8oj173","wolf","z","<div style=""font-size:30pt;"">All integers are expressible as fractions.</div>","Fractions","T","F","Conversion","false","T","true",""
"","1444","html-keyboard-response","86","2.0.0","272918","p7nuv8oj173","wolf","z","<div style=""font-size:30pt;"">There are numbers between 1/3 and 1/2.</div>","Fractions","T","F","Infinite density","false","T","true",""
"","3847","html-keyboard-response","87","2.0.0","277267","p7nuv8oj173","wolf","m","<div style=""font-size:30pt;"">8 divided by 1/2 is 4.</div>","Fractions","F","T","Division","false","F","true",""
"","4256","html-keyboard-response","88","2.0.0","282025","p7nuv8oj173","wolf","m","<div style=""font-size:30pt;"">There are numbers between 1/10 and 10/100.</div>","Fractions","F","T","Infinite density","false","F","true",""
"","1709","html-keyboard-response","89","2.0.0","284236","p7nuv8oj173","wolf","z","<div style=""font-size:30pt;"">12/13 is greater than 1/13.</div>","Fractions","T","T","Ordering","true","T","true",""
"","1572","html-keyboard-response","90","2.0.0","286310","p7nuv8oj173","wolf","z","<div style=""font-size:30pt;"">4 divided by 1/2 is 8.</div>","Fractions","T","F","Division","false","T","true",""
"","1231","html-keyboard-response","91","2.0.0","288041","p7nuv8oj173","wolf"," ","<p>The next 20 statements will be about <b>Matter</b>. Press any key to continue.</p>","","","","","","","",""
"","6209","html-keyboard-response","92","2.0.0","294251","p7nuv8oj173","wolf","z","<div style=""font-size:30pt;"">Fire is composed of matter.</div>","Matter","F","T","Mass","false","T","false",""
"","2066","html-keyboard-response","93","2.0.0","296820","p7nuv8oj173","wolf","z","<div style=""font-size:30pt;"">Ice is denser than water.</div>","Matter","F","T","Density","false","T","false",""
"","3673","html-keyboard-response","94","2.0.0","300995","p7nuv8oj173","wolf","m","<div style=""font-size:30pt;"">A pound of steel weighs more than a pound of feathers.</div>","Matter","F","T","Weight","false","F","true",""
"","2163","html-keyboard-response","95","2.0.0","303662","p7nuv8oj173","wolf","m","<div style=""font-size:30pt;"">A liter of water weighs more than a liter of ice.</div>","Matter","T","F","Weight","false","F","false",""
"","1701","html-keyboard-response","96","2.0.0","305865","p7nuv8oj173","wolf","z","<div style=""font-size:30pt;"">Air is composed of matter.</div>","Matter","T","F","Mass","false","T","true",""
"","1231","html-keyboard-response","97","2.0.0","307598","p7nuv8oj173","wolf","m","<div style=""font-size:30pt;"">A shadow can be cut in half.</div>","Matter","F","T","Divisibility","false","F","true",""
"","1820","html-keyboard-response","98","2.0.0","309920","p7nuv8oj173","wolf","z","<div style=""font-size:30pt;"">Steel is denser than foam.</div>","Matter","T","T","Density","true","T","true",""
"","1070","html-keyboard-response","99","2.0.0","311492","p7nuv8oj173","wolf","t","<div style=""font-size:30pt;"">Press T if you are paying attention. Do not press z or m.</div>","Matter","T3","T3","AttentionCheck","true","T3","true",""
"","1349","html-keyboard-response","100","2.0.0","313343","p7nuv8oj173","wolf","z","<div style=""font-size:30pt;"">Rocks are composed of matter.</div>","Matter","T","T","Mass","true","T","true",""
"","889","html-keyboard-response","101","2.0.0","314734","p7nuv8oj173","wolf","m","<div style=""font-size:30pt;"">An idea can be cut in half.</div>","Matter","F","F","Divisibility","true","F","true",""
"","2613","html-keyboard-response","102","2.0.0","317849","p7nuv8oj173","wolf","m","<div style=""font-size:30pt;"">Atoms are mostly empty space.</div>","Matter","T","F","Atom","false","F","false",""
"","1541","html-keyboard-response","103","2.0.0","319893","p7nuv8oj173","wolf","m","<div style=""font-size:30pt;"">Numbers are composed of matter.</div>","Matter","F","F","Mass","true","F","true",""
"","1460","html-keyboard-response","104","2.0.0","321854","p7nuv8oj173","wolf","z","<div style=""font-size:30pt;"">Atoms are visible to the naked eye.</div>","Matter","F","F","Atom","true","T","false",""
"","1603","html-keyboard-response","105","2.0.0","323959","p7nuv8oj173","wolf","m","<div style=""font-size:30pt;"">Foam is denser than brick.</div>","Matter","F","F","Density","true","F","true",""
"","3453","html-keyboard-response","106","2.0.0","327915","p7nuv8oj173","wolf","m","<div style=""font-size:30pt;"">A pound of steel weighs more than a ton of steel.</div>","Matter","F","F","Weight","true","F","true",""
"","1669","html-keyboard-response","107","2.0.0","330085","p7nuv8oj173","wolf","z","<div style=""font-size:30pt;"">Atoms are the constituents of matter.</div>","Matter","T","T","Atom","true","T","true",""
"","1638","html-keyboard-response","108","2.0.0","332225","p7nuv8oj173","wolf","m","<div style=""font-size:30pt;"">Atoms are weightless.</div>","Matter","F","T","Atom","false","F","true",""
"","1253","html-keyboard-response","109","2.0.0","333980","p7nuv8oj173","wolf","z","<div style=""font-size:30pt;"">A log can be cut in half.</div>","Matter","T","T","Divisibility","true","T","true",""
"","7473","html-keyboard-response","110","2.0.0","341955","p7nuv8oj173","wolf","z","<div style=""font-size:30pt;"">A cold penny is denser than a hot penny.</div>","Matter","T","F","Density","false","T","true",""
"","2456","html-keyboard-response","111","2.0.0","344913","p7nuv8oj173","wolf","m","<div style=""font-size:30pt;"">A liter of water weighs more than a liter of air.</div>","Matter","T","T","Weight","true","F","false",""
"","1601","html-keyboard-response","112","2.0.0","347017","p7nuv8oj173","wolf","z","<div style=""font-size:30pt;"">A grain of sand can be cut in half.</div>","Matter","T","F","Divisibility","false","T","true",""
"","944","html-keyboard-response","113","2.0.0","348462","p7nuv8oj173","wolf"," ","<p>The next 20 statements will be about <b>Astronomy</b>. Press any key to continue.</p>","","","","","","","",""
"","5535","html-keyboard-response","114","2.0.0","353999","p7nuv8oj173","wolf","m","<div style=""font-size:30pt;"">Planets are more massive than stars.</div>","Astronomy","F","T","Planet","false","F","true",""
"","1743","html-keyboard-response","115","2.0.0","356243","p7nuv8oj173","wolf","z","<div style=""font-size:30pt;"">The moon revolves around the earth.</div>","Astronomy","T","T","Solar system","true","T","true",""
"","3173","html-keyboard-response","116","2.0.0","359919","p7nuv8oj173","wolf","m","<div style=""font-size:30pt;"">Phases of the moon are caused by clouds.</div>","Astronomy","F","F","Lunar phase","true","F","true",""
"","2592","html-keyboard-response","117","2.0.0","363012","p7nuv8oj173","wolf","z","<div style=""font-size:30pt;"">The earth's rotation causes the seasons.</div>","Astronomy","F","F","Season","true","T","false",""
"","6168","html-keyboard-response","118","2.0.0","369682","p7nuv8oj173","wolf","z","<div style=""font-size:30pt;"">A change in overall sunlight causes the seasons.</div>","Astronomy","T","T","Season","true","T","true",""
"","1353","html-keyboard-response","119","2.0.0","371537","p7nuv8oj173","wolf","m","<div style=""font-size:30pt;"">Asteroids are more massive than planets.</div>","Astronomy","F","F","Planet","true","F","true",""
"","1506","html-keyboard-response","120","2.0.0","373546","p7nuv8oj173","wolf","z","<div style=""font-size:30pt;"">The earth's tilt causes the seasons.</div>","Astronomy","T","F","Season","false","T","true",""
"","1658","html-keyboard-response","121","2.0.0","375706","p7nuv8oj173","wolf","m","<div style=""font-size:30pt;"">The sun revolves around the moon.</div>","Astronomy","F","F","Solar system","true","F","true",""
"","2075","html-keyboard-response","122","2.0.0","378284","p7nuv8oj173","wolf","z","<div style=""font-size:30pt;"">Phases of the moon are caused by the moon's orbit.</div>","Astronomy","T","F","Lunar phase","false","T","true",""
"","1885","html-keyboard-response","123","2.0.0","380671","p7nuv8oj173","wolf","z","<div style=""font-size:30pt;"">Planets are more massive than moons.</div>","Astronomy","T","T","Planet","true","T","true",""
"","1012","html-keyboard-response","124","2.0.0","382185","p7nuv8oj173","wolf","z","<div style=""font-size:30pt;"">The sun produces light.</div>","Astronomy","T","T","Star","true","T","true",""
"","1085","html-keyboard-response","125","2.0.0","383773","p7nuv8oj173","wolf","m","<div style=""font-size:30pt;"">The moon produces light.</div>","Astronomy","F","T","Star","false","F","true",""
"","2853","html-keyboard-response","126","2.0.0","387128","p7nuv8oj173","wolf","z","<div style=""font-size:30pt;"">The earth's distance from the sun causes the seasons.</div>","Astronomy","F","T","Season","false","T","false",""
"","1741","html-keyboard-response","127","2.0.0","389372","p7nuv8oj173","wolf","z","<div style=""font-size:30pt;"">The sun produces gravity.</div>","Astronomy","T","F","Star","false","T","true",""
"","1795","html-keyboard-response","128","2.0.0","391669","p7nuv8oj173","wolf","z","<div style=""font-size:30pt;"">The earth revolves around the sun.</div>","Astronomy","T","F","Solar system","false","T","true",""
"","855","html-keyboard-response","129","2.0.0","393026","p7nuv8oj173","wolf","m","<div style=""font-size:30pt;"">The sun revolves around the earth.</div>","Astronomy","F","T","Solar system","false","F","true",""
"","860","html-keyboard-response","130","2.0.0","394389","p7nuv8oj173","wolf","m","<div style=""font-size:30pt;"">The sun produces sound.</div>","Astronomy","F","F","Star","true","F","true",""
"","4071","html-keyboard-response","131","2.0.0","398961","p7nuv8oj173","wolf","z","<div style=""font-size:30pt;"">Phases of the moon are caused by changes in illumination.</div>","Astronomy","T","T","Lunar phase","true","T","true",""
"","1914","html-keyboard-response","132","2.0.0","401377","p7nuv8oj173","wolf","z","<div style=""font-size:30pt;"">Stars are more massive than planets.</div>","Astronomy","T","F","Planet","false","T","true",""
"","1367","html-keyboard-response","133","2.0.0","403246","p7nuv8oj173","wolf","m","<div style=""font-size:30pt;"">Phases of the moon are caused by the earth's shadow.</div>","Astronomy","F","T","Lunar phase","false","F","true",""
"","1339","html-keyboard-response","134","2.0.0","405087","p7nuv8oj173","wolf","t","<div style=""font-size:30pt;"">Press T if you are paying attention. Do not press z or m.</div>","Astronomy","T3","T3","AttentionCheck","true","T3","true",""
"","1235","html-keyboard-response","135","2.0.0","406824","p7nuv8oj173","wolf"," ","<p>The next 20 statements will be about <b>Physiology</b>. Press any key to continue.</p>","","","","","","","",""
"","1392","html-keyboard-response","136","2.0.0","408217","p7nuv8oj173","wolf","z","<div style=""font-size:30pt;"">Ferns can reproduce.</div>","Physiology","T","F","Reproduction","false","T","true",""
"","1890","html-keyboard-response","137","2.0.0","410610","p7nuv8oj173","wolf","z","<div style=""font-size:30pt;"">A baby can be a niece or a nephew.</div>","Physiology","T","T","Kinship","true","T","true",""
"","1060","html-keyboard-response","138","2.0.0","412172","p7nuv8oj173","wolf","t","<div style=""font-size:30pt;"">Press T if you are paying attention. Do not press z or m.</div>","Physiology","T3","T3","AttentionCheck","true","T3","true",""
"","927","html-keyboard-response","139","2.0.0","413601","p7nuv8oj173","wolf","m","<div style=""font-size:30pt;"">Clouds can die.</div>","Physiology","F","T","Death","false","F","true",""
"","1236","html-keyboard-response","140","2.0.0","415340","p7nuv8oj173","wolf","z","<div style=""font-size:30pt;"">Tigers can reproduce.</div>","Physiology","T","T","Reproduction","true","T","true",""
"","828","html-keyboard-response","141","2.0.0","416669","p7nuv8oj173","wolf","m","<div style=""font-size:30pt;"">Rocks are alive.</div>","Physiology","F","F","Life","true","F","true",""
"","2141","html-keyboard-response","142","2.0.0","419312","p7nuv8oj173","wolf","z","<div style=""font-size:30pt;"">Bacteria turn food into energy.</div>","Physiology","T","F","Metabolism","false","T","true",""
"","724","html-keyboard-response","143","2.0.0","420538","p7nuv8oj173","wolf","z","<div style=""font-size:30pt;"">Turtles can die.</div>","Physiology","T","T","Death","true","T","true",""
"","906","html-keyboard-response","144","2.0.0","421947","p7nuv8oj173","wolf","z","<div style=""font-size:30pt;"">Coral is alive.</div>","Physiology","T","F","Life","false","T","true",""
"","7983","html-keyboard-response","145","2.0.0","430432","p7nuv8oj173","wolf","z","<div style=""font-size:30pt;"">A baby can be identical to an older sibling.</div>","Physiology","F","T","Kinship","false","T","false",""
"","817","html-keyboard-response","146","2.0.0","431751","p7nuv8oj173","wolf","m","<div style=""font-size:30pt;"">Screwdrivers can die.</div>","Physiology","F","F","Death","true","F","true",""
"","2809","html-keyboard-response","147","2.0.0","435063","p7nuv8oj173","wolf","m","<div style=""font-size:30pt;"">A baby can be a mother or a father.</div>","Physiology","F","F","Kinship","true","F","true",""
"","1282","html-keyboard-response","148","2.0.0","436846","p7nuv8oj173","wolf","m","<div style=""font-size:30pt;"">Rocks turn food into energy.</div>","Physiology","F","F","Metabolism","true","F","true",""
"","805","html-keyboard-response","149","2.0.0","438153","p7nuv8oj173","wolf","z","<div style=""font-size:30pt;"">Caterpillars can reproduce.</div>","Physiology","F","T","Reproduction","false","T","false",""
"","806","html-keyboard-response","150","2.0.0","439461","p7nuv8oj173","wolf","m","<div style=""font-size:30pt;"">Chairs can reproduce.</div>","Physiology","F","F","Reproduction","true","F","true",""
"","1256","html-keyboard-response","151","2.0.0","441219","p7nuv8oj173","wolf","z","<div style=""font-size:30pt;"">Mushrooms can die.</div>","Physiology","T","F","Death","false","T","true",""
"","815","html-keyboard-response","152","2.0.0","442537","p7nuv8oj173","wolf","z","<div style=""font-size:30pt;"">People turn food into energy.</div>","Physiology","T","T","Metabolism","true","T","true",""
"","3217","html-keyboard-response","153","2.0.0","446256","p7nuv8oj173","wolf","m","<div style=""font-size:30pt;"">A baby can be an uncle or an aunt.</div>","Physiology","T","F","Kinship","false","F","false",""
"","728","html-keyboard-response","154","2.0.0","447486","p7nuv8oj173","wolf","z","<div style=""font-size:30pt;"">Fish are alive.</div>","Physiology","T","T","Life","true","T","true",""
"","1517","html-keyboard-response","155","2.0.0","449505","p7nuv8oj173","wolf","m","<div style=""font-size:30pt;"">The sun is alive.</div>","Physiology","F","T","Life","false","F","true",""
"","891","html-keyboard-response","156","2.0.0","450897","p7nuv8oj173","wolf","z","<div style=""font-size:30pt;"">Plants turn food into energy.</div>","Physiology","F","T","Metabolism","false","T","false",""
"","1906","html-keyboard-response","157","2.0.0","453305","p7nuv8oj173","wolf"," ","
      <p>Thank you for completing this portion of the 
      experiment. We now have a few  questions for you.</p>
      <p>Press any key to proceed, and click submit once you are 
      done with the questions. Thanks! </p>
      ","","","","","","","",""
"","7598","survey-multi-choice","158","null","460904","p7nuv8oj173","wolf","{""grade"":""3rd Year"",""gender"":""Female""}","","","","","","","","","[0,1]"
"","58501","survey","159","4.0.0","519430","p7nuv8oj173","wolf","{""age"":20,""major"":""Cog Sci Design + interaction"",""experiment_topic"":""I think it's testing naive theories, comparing our innate knowledge with knowledge we learned in classes"",""technical_difficulties"":""No""}","","","","","","","","",""
