"success","rt","trial_type","trial_index","plugin_version","time_elapsed","random_id","participant_id","response","stimulus","category","correct_response","naive_theory","concept","is_consistent","response_tf","correct","question_order"
"true","3138","fullscreen","0","null","4144","p8mb85b004k","panda","","","","","","","","","",""
"","2892","survey-text","1","2.0.0","7040","p8mb85b004k","panda","{""participant_id"":""panda""}","","","","","","","","",""
"","5752","html-keyboard-response","2","2.0.0","12794","p8mb85b004k","panda"," ","<p>Welcome to the experiment.<br><br>You will see 140 statements about various topics.<br><br>Please read the statements and respond with whether you think they are <b>true (Z key)</b> or <b>false (M key)</b> as quickly as possible!<br><br>Press any key to begin.</p>","","","","","","","",""
"","1980","html-keyboard-response","3","2.0.0","14776","p8mb85b004k","panda"," ","<p>The next 20 statements will be about <b>Genetics</b>. Press any key to continue.</p>","","","","","","","",""
"","3781","html-keyboard-response","4","2.0.0","18559","p8mb85b004k","panda","m","<div style=""font-size:30pt;"">Adults have more chromosomes than children.</div>","Genetics","F","T","Chromosome","false","F","true",""
"","3782","html-keyboard-response","5","2.0.0","22844","p8mb85b004k","panda","z","<div style=""font-size:30pt;"">Genes that code for eye color can be found in the liver.</div>","Genetics","T","F","Expression","false","T","true",""
"","1919","html-keyboard-response","6","2.0.0","25265","p8mb85b004k","panda","z","<div style=""font-size:30pt;"">Hair color is heritable.</div>","Genetics","T","T","Heritability","true","T","true",""
"","2694","html-keyboard-response","7","2.0.0","28461","p8mb85b004k","panda","z","<div style=""font-size:30pt;"">Two brown-eyed parents could have a blue-eyed baby.</div>","Genetics","T","F","Dominance","false","T","true",""
"","1869","html-keyboard-response","8","2.0.0","30833","p8mb85b004k","panda","m","<div style=""font-size:30pt;"">Genes that code for eye color can be found in tears.</div>","Genetics","F","T","Expression","false","F","true",""
"","1336","html-keyboard-response","9","2.0.0","32671","p8mb85b004k","panda","m","<div style=""font-size:30pt;"">Intelligence is heritable.</div>","Genetics","T","F","Heritability","false","F","false",""
"","2748","html-keyboard-response","10","2.0.0","35922","p8mb85b004k","panda","m","<div style=""font-size:30pt;"">Genes that code for eye color can be found in the eye.</div>","Genetics","T","T","Expression","true","F","false",""
"","1805","html-keyboard-response","11","2.0.0","38229","p8mb85b004k","panda","m","<div style=""font-size:30pt;"">Exercise can change one's genome.</div>","Genetics","F","T","Mutation","false","F","true",""
"","1640","html-keyboard-response","12","2.0.0","40371","p8mb85b004k","panda","t","<div style=""font-size:30pt;"">Press T if you are paying attention. Do not press z or m.</div>","Genetics","T3","T3","AttentionCheck","true","T3","true",""
"","2904","html-keyboard-response","13","2.0.0","43777","p8mb85b004k","panda","m","<div style=""font-size:30pt;"">Skin cells have more chromosomes than egg cells.</div>","Genetics","T","F","Chromosome","false","F","false",""
"","4427","html-keyboard-response","14","2.0.0","48707","p8mb85b004k","panda","m","<div style=""font-size:30pt;"">Two blue-eyed parents could have a brown-eyed baby.</div>","Genetics","F","F","Dominance","true","F","true",""
"","4238","html-keyboard-response","15","2.0.0","53447","p8mb85b004k","panda","z","<div style=""font-size:30pt;"">Radiation can change one's genome.</div>","Genetics","T","T","Mutation","true","T","true",""
"","2380","html-keyboard-response","16","2.0.0","56330","p8mb85b004k","panda","m","<div style=""font-size:30pt;"">A blue-eyed baby must have two blue-eyed parents.</div>","Genetics","F","T","Dominance","false","F","true",""
"","1787","html-keyboard-response","17","2.0.0","58619","p8mb85b004k","panda","m","<div style=""font-size:30pt;"">Sunscreen can change one's genome.</div>","Genetics","F","F","Mutation","true","F","true",""
"","1371","html-keyboard-response","18","2.0.0","60493","p8mb85b004k","panda","m","<div style=""font-size:30pt;"">Pierced ears are heritable.</div>","Genetics","F","F","Heritability","true","F","true",""
"","3337","html-keyboard-response","19","2.0.0","64331","p8mb85b004k","panda","z","<div style=""font-size:30pt;"">Two brown-eyed parents could have a brown-eyed baby.</div>","Genetics","T","T","Dominance","true","T","true",""
"","1718","html-keyboard-response","20","2.0.0","66551","p8mb85b004k","panda","m","<div style=""font-size:30pt;"">Men have more chromosomes than women.</div>","Genetics","F","F","Chromosome","true","F","true",""
"","2003","html-keyboard-response","21","2.0.0","69056","p8mb85b004k","panda","z","<div style=""font-size:30pt;"">Viruses can change one's genome.</div>","Genetics","T","F","Mutation","false","T","true",""
"","1929","html-keyboard-response","22","2.0.0","71487","p8mb85b004k","panda","m","<div style=""font-size:30pt;"">Immunity to chickenpox is heritable.</div>","Genetics","F","T","Heritability","false","F","true",""
"","2739","html-keyboard-response","23","2.0.0","74729","p8mb85b004k","panda","z","<div style=""font-size:30pt;"">Humans have more chromosomes than mosquitoes.</div>","Genetics","T","T","Chromosome","true","T","true",""
"","1564","html-keyboard-response","24","2.0.0","76796","p8mb85b004k","panda","m","<div style=""font-size:30pt;"">Genes that code for eye color can be found in hair.</div>","Genetics","F","F","Expression","true","F","true",""
"","1702","html-keyboard-response","25","2.0.0","79000","p8mb85b004k","panda","m","<p>The next 20 statements will be about <b>Matter</b>. Press any key to continue.</p>","","","","","","","",""
"","4052","html-keyboard-response","26","2.0.0","83053","p8mb85b004k","panda","z","<div style=""font-size:30pt;"">A cold penny is denser than a hot penny.</div>","Matter","T","F","Density","false","T","true",""
"","2160","html-keyboard-response","27","2.0.0","85715","p8mb85b004k","panda","z","<div style=""font-size:30pt;"">Rocks are composed of matter.</div>","Matter","T","T","Mass","true","T","true",""
"","5045","html-keyboard-response","28","2.0.0","91261","p8mb85b004k","panda","m","<div style=""font-size:30pt;"">A pound of steel weighs more than a ton of steel.</div>","Matter","F","F","Weight","true","F","true",""
"","1827","html-keyboard-response","29","2.0.0","93591","p8mb85b004k","panda","m","<div style=""font-size:30pt;"">A shadow can be cut in half.</div>","Matter","F","T","Divisibility","false","F","true",""
"","1946","html-keyboard-response","30","2.0.0","96039","p8mb85b004k","panda","m","<div style=""font-size:30pt;"">Air is composed of matter.</div>","Matter","T","F","Mass","false","F","false",""
"","1876","html-keyboard-response","31","2.0.0","98417","p8mb85b004k","panda","z","<div style=""font-size:30pt;"">Foam is denser than brick.</div>","Matter","F","F","Density","true","T","false",""
"","4078","html-keyboard-response","32","2.0.0","102998","p8mb85b004k","panda","m","<div style=""font-size:30pt;"">A liter of water weighs more than a liter of air.</div>","Matter","T","T","Weight","true","F","false",""
"","1358","html-keyboard-response","33","2.0.0","104858","p8mb85b004k","panda","m","<div style=""font-size:30pt;"">An idea can be cut in half.</div>","Matter","F","F","Divisibility","true","F","true",""
"","2134","html-keyboard-response","34","2.0.0","107495","p8mb85b004k","panda","z","<div style=""font-size:30pt;"">A grain of sand can be cut in half.</div>","Matter","T","F","Divisibility","false","T","true",""
"","1863","html-keyboard-response","35","2.0.0","109859","p8mb85b004k","panda","z","<div style=""font-size:30pt;"">Atoms are the constituents of matter.</div>","Matter","T","T","Atom","true","T","true",""
"","2969","html-keyboard-response","36","2.0.0","113331","p8mb85b004k","panda","m","<div style=""font-size:30pt;"">A liter of water weighs more than a liter of ice.</div>","Matter","T","F","Weight","false","F","false",""
"","2704","html-keyboard-response","37","2.0.0","116536","p8mb85b004k","panda","m","<div style=""font-size:30pt;"">Ice is denser than water.</div>","Matter","F","T","Density","false","F","true",""
"","2024","html-keyboard-response","38","2.0.0","119062","p8mb85b004k","panda","z","<div style=""font-size:30pt;"">Steel is denser than foam.</div>","Matter","T","T","Density","true","T","true",""
"","2263","html-keyboard-response","39","2.0.0","121826","p8mb85b004k","panda","m","<div style=""font-size:30pt;"">Atoms are weightless.</div>","Matter","F","T","Atom","false","F","true",""
"","1301","html-keyboard-response","40","2.0.0","123629","p8mb85b004k","panda","z","<div style=""font-size:30pt;"">A log can be cut in half.</div>","Matter","T","T","Divisibility","true","T","true",""
"","1584","html-keyboard-response","41","2.0.0","125715","p8mb85b004k","panda","m","<div style=""font-size:30pt;"">Atoms are visible to the naked eye.</div>","Matter","F","F","Atom","true","F","true",""
"","1398","html-keyboard-response","42","2.0.0","127615","p8mb85b004k","panda","t","<div style=""font-size:30pt;"">Press T if you are paying attention. Do not press z or m.</div>","Matter","T3","T3","AttentionCheck","true","T3","true",""
"","1352","html-keyboard-response","43","2.0.0","129468","p8mb85b004k","panda","m","<div style=""font-size:30pt;"">Fire is composed of matter.</div>","Matter","F","T","Mass","false","F","true",""
"","2696","html-keyboard-response","44","2.0.0","132667","p8mb85b004k","panda","z","<div style=""font-size:30pt;"">Atoms are mostly empty space.</div>","Matter","T","F","Atom","false","T","true",""
"","3461","html-keyboard-response","45","2.0.0","136630","p8mb85b004k","panda","m","<div style=""font-size:30pt;"">A pound of steel weighs more than a pound of feathers.</div>","Matter","F","T","Weight","false","F","true",""
"","2841","html-keyboard-response","46","2.0.0","139973","p8mb85b004k","panda","m","<div style=""font-size:30pt;"">Numbers are composed of matter.</div>","Matter","F","F","Mass","true","F","true",""
"","1408","html-keyboard-response","47","2.0.0","141883","p8mb85b004k","panda"," ","<p>The next 20 statements will be about <b>Fractions</b>. Press any key to continue.</p>","","","","","","","",""
"","3888","html-keyboard-response","48","2.0.0","145773","p8mb85b004k","panda","z","<div style=""font-size:30pt;"">There are numbers between 1/10 and 10/100.</div>","Fractions","F","T","Infinite density","false","T","false",""
"","4267","html-keyboard-response","49","2.0.0","150542","p8mb85b004k","panda","m","<div style=""font-size:30pt;"">8 divided by 2/1 is 3.</div>","Fractions","F","F","Division","true","F","true",""
"","2633","html-keyboard-response","50","2.0.0","153676","p8mb85b004k","panda","m","<div style=""font-size:30pt;"">1/13 is greater than 1/30.</div>","Fractions","T","F","Ordering","false","F","false",""
"","1127","html-keyboard-response","51","2.0.0","155305","p8mb85b004k","panda","t","<div style=""font-size:30pt;"">Press T if you are paying attention. Do not press z or m.</div>","Fractions","T3","T3","AttentionCheck","true","T3","true",""
"","2510","html-keyboard-response","52","2.0.0","158317","p8mb85b004k","panda","z","<div style=""font-size:30pt;"">All decimals are expressible as fractions.</div>","Fractions","T","T","Conversion","true","T","true",""
"","2031","html-keyboard-response","53","2.0.0","160851","p8mb85b004k","panda","z","<div style=""font-size:30pt;"">All fractions are expressible as decimals.</div>","Fractions","F","T","Conversion","false","T","false",""
"","2705","html-keyboard-response","54","2.0.0","164058","p8mb85b004k","panda","z","<div style=""font-size:30pt;"">All integers are expressible as fractions.</div>","Fractions","T","F","Conversion","false","T","true",""
"","4409","html-keyboard-response","55","2.0.0","168970","p8mb85b004k","panda","z","<div style=""font-size:30pt;"">12/13 is greater than 1/13.</div>","Fractions","T","T","Ordering","true","T","true",""
"","2273","html-keyboard-response","56","2.0.0","171746","p8mb85b004k","panda","z","<div style=""font-size:30pt;"">1/3 plus 1/3 is 2/3.</div>","Fractions","T","T","Addition","true","T","true",""
"","4610","html-keyboard-response","57","2.0.0","176858","p8mb85b004k","panda","m","<div style=""font-size:30pt;"">4 divided by 1/2 is 8.</div>","Fractions","T","F","Division","false","F","false",""
"","2747","html-keyboard-response","58","2.0.0","180106","p8mb85b004k","panda","z","<div style=""font-size:30pt;"">All fractions are expressible as integers.</div>","Fractions","F","F","Conversion","true","T","false",""
"","3010","html-keyboard-response","59","2.0.0","183618","p8mb85b004k","panda","z","<div style=""font-size:30pt;"">There are numbers between 1/3 and 1/2.</div>","Fractions","T","F","Infinite density","false","T","true",""
"","1307","html-keyboard-response","60","2.0.0","185427","p8mb85b004k","panda","z","<div style=""font-size:30pt;"">There are numbers between 1 and 3.</div>","Fractions","T","T","Infinite density","true","T","true",""
"","6745","html-keyboard-response","61","2.0.0","192675","p8mb85b004k","panda","z","<div style=""font-size:30pt;"">4 divided by 2/1 is 2.</div>","Fractions","T","T","Division","true","T","true",""
"","12719","html-keyboard-response","62","2.0.0","205896","p8mb85b004k","panda","m","<div style=""font-size:30pt;"">2/3 plus 2/4 is 2/7.</div>","Fractions","F","T","Addition","false","F","true",""
"","4053","html-keyboard-response","63","2.0.0","210450","p8mb85b004k","panda","m","<div style=""font-size:30pt;"">1/17 is greater than 16/17.</div>","Fractions","F","F","Ordering","true","F","true",""
"","2680","html-keyboard-response","64","2.0.0","213633","p8mb85b004k","panda","z","<div style=""font-size:30pt;"">1/10 plus 1/10 is 1/5.</div>","Fractions","T","F","Addition","false","T","true",""
"","2716","html-keyboard-response","65","2.0.0","216851","p8mb85b004k","panda","m","<div style=""font-size:30pt;"">There are numbers between 10 and 10.</div>","Fractions","F","F","Infinite density","true","F","true",""
"","4982","html-keyboard-response","66","2.0.0","222335","p8mb85b004k","panda","m","<div style=""font-size:30pt;"">8 divided by 1/2 is 4.</div>","Fractions","F","T","Division","false","F","true",""
"","4608","html-keyboard-response","67","2.0.0","227446","p8mb85b004k","panda","m","<div style=""font-size:30pt;"">1/17 is greater than 1/9.</div>","Fractions","F","T","Ordering","false","F","true",""
"","2527","html-keyboard-response","68","2.0.0","230475","p8mb85b004k","panda","m","<div style=""font-size:30pt;"">1/3 plus 1/3 is 1/3.</div>","Fractions","F","F","Addition","true","F","true",""
"","1478","html-keyboard-response","69","2.0.0","232454","p8mb85b004k","panda"," ","<p>The next 20 statements will be about <b>Mechanics</b>. Press any key to continue.</p>","","","","","","","",""
"","3934","html-keyboard-response","70","2.0.0","236390","p8mb85b004k","panda","m","<div style=""font-size:30pt;"">Constant force can yield constant rest.</div>","Mechanics","T","F","Acceleration","false","F","false",""
"","1966","html-keyboard-response","71","2.0.0","238857","p8mb85b004k","panda","m","<div style=""font-size:30pt;"">A moving bullet loses speed.</div>","Mechanics","T","T","Velocity","true","F","false",""
"","1493","html-keyboard-response","72","2.0.0","240853","p8mb85b004k","panda","m","<div style=""font-size:30pt;"">A moving bullet loses height.</div>","Mechanics","T","F","Velocity","false","F","false",""
"","2059","html-keyboard-response","73","2.0.0","243414","p8mb85b004k","panda","z","<div style=""font-size:30pt;"">Energy can be transferred from one object to another.</div>","Mechanics","T","F","Momentum","false","T","true",""
"","1800","html-keyboard-response","74","2.0.0","245717","p8mb85b004k","panda","z","<div style=""font-size:30pt;"">Constant acceleration requires constant force.</div>","Mechanics","T","T","Acceleration","true","T","true",""
"","2536","html-keyboard-response","75","2.0.0","248756","p8mb85b004k","panda","z","<div style=""font-size:30pt;"">Heavy balls fall through air faster than light balls.</div>","Mechanics","F","T","Gravity","false","T","false",""
"","1862","html-keyboard-response","76","2.0.0","251120","p8mb85b004k","panda","m","<div style=""font-size:30pt;"">Bright objects fall through air faster than dark objects.</div>","Mechanics","F","F","Gravity","true","F","true",""
"","2240","html-keyboard-response","77","2.0.0","253862","p8mb85b004k","panda","z","<div style=""font-size:30pt;"">Pointy objects fall through air faster than flat objects.</div>","Mechanics","T","F","Gravity","false","T","true",""
"","2400","html-keyboard-response","78","2.0.0","256764","p8mb85b004k","panda","m","<div style=""font-size:30pt;"">Forces can be male or female.</div>","Mechanics","F","F","Force","true","F","true",""
"","1268","html-keyboard-response","79","2.0.0","258534","p8mb85b004k","panda","m","<div style=""font-size:30pt;"">A moving bullet loses weight.</div>","Mechanics","F","F","Velocity","true","F","true",""
"","2678","html-keyboard-response","80","2.0.0","261714","p8mb85b004k","panda","m","<div style=""font-size:30pt;"">Momentum can be transferred from one object to another.</div>","Mechanics","T","T","Momentum","true","F","false",""
"","1513","html-keyboard-response","81","2.0.0","263730","p8mb85b004k","panda","m","<div style=""font-size:30pt;"">Color can be transferred from one object to another.</div>","Mechanics","F","F","Momentum","true","F","true",""
"","2426","html-keyboard-response","82","2.0.0","266657","p8mb85b004k","panda","z","<div style=""font-size:30pt;"">Constant speed requires constant acceleration.</div>","Mechanics","F","F","Acceleration","true","T","false",""
"","3805","html-keyboard-response","83","2.0.0","270964","p8mb85b004k","panda","m","<div style=""font-size:30pt;"">Forces can be transferred from one object to another.</div>","Mechanics","F","T","Momentum","false","F","true",""
"","917","html-keyboard-response","84","2.0.0","272383","p8mb85b004k","panda","m","<div style=""font-size:30pt;"">A moving bullet loses force.</div>","Mechanics","F","T","Velocity","false","F","true",""
"","2565","html-keyboard-response","85","2.0.0","275451","p8mb85b004k","panda","m","<div style=""font-size:30pt;"">Forces can be straight or curved.</div>","Mechanics","F","T","Force","false","F","true",""
"","1393","html-keyboard-response","86","2.0.0","277347","p8mb85b004k","panda","t","<div style=""font-size:30pt;"">Press T if you are paying attention. Do not press z or m.</div>","Mechanics","T3","T3","AttentionCheck","true","T3","true",""
"","3663","html-keyboard-response","87","2.0.0","281512","p8mb85b004k","panda","m","<div style=""font-size:30pt;"">Anvils fall through air faster than feathers.</div>","Mechanics","T","T","Gravity","true","F","false",""
"","1772","html-keyboard-response","88","2.0.0","283787","p8mb85b004k","panda","z","<div style=""font-size:30pt;"">Constant motion requires constant force.</div>","Mechanics","F","T","Acceleration","false","T","false",""
"","1080","html-keyboard-response","89","2.0.0","285368","p8mb85b004k","panda","z","<div style=""font-size:30pt;"">Forces can be strong or weak.</div>","Mechanics","T","T","Force","true","T","true",""
"","1014","html-keyboard-response","90","2.0.0","286884","p8mb85b004k","panda","z","<div style=""font-size:30pt;"">Forces can be balanced or unbalanced.</div>","Mechanics","T","F","Force","false","T","true",""
"","1417","html-keyboard-response","91","2.0.0","288802","p8mb85b004k","panda"," ","<p>The next 20 statements will be about <b>Astronomy</b>. Press any key to continue.</p>","","","","","","","",""
"","3278","html-keyboard-response","92","2.0.0","292082","p8mb85b004k","panda","z","<div style=""font-size:30pt;"">Phases of the moon are caused by the moon's orbit.</div>","Astronomy","T","F","Lunar phase","false","T","true",""
"","1946","html-keyboard-response","93","2.0.0","294530","p8mb85b004k","panda","z","<div style=""font-size:30pt;"">The moon produces light.</div>","Astronomy","F","T","Star","false","T","false",""
"","1453","html-keyboard-response","94","2.0.0","296485","p8mb85b004k","panda","m","<div style=""font-size:30pt;"">The sun produces sound.</div>","Astronomy","F","F","Star","true","F","true",""
"","1816","html-keyboard-response","95","2.0.0","298803","p8mb85b004k","panda","z","<div style=""font-size:30pt;"">Phases of the moon are caused by the earth's shadow.</div>","Astronomy","F","T","Lunar phase","false","T","false",""
"","4385","html-keyboard-response","96","2.0.0","303690","p8mb85b004k","panda","m","<div style=""font-size:30pt;"">The earth revolves around the sun.</div>","Astronomy","T","F","Solar system","false","F","false",""
"","1561","html-keyboard-response","97","2.0.0","305753","p8mb85b004k","panda","z","<div style=""font-size:30pt;"">The moon revolves around the earth.</div>","Astronomy","T","T","Solar system","true","T","true",""
"","2315","html-keyboard-response","98","2.0.0","308570","p8mb85b004k","panda","z","<div style=""font-size:30pt;"">Planets are more massive than stars.</div>","Astronomy","F","T","Planet","false","T","false",""
"","1300","html-keyboard-response","99","2.0.0","310372","p8mb85b004k","panda","t","<div style=""font-size:30pt;"">Press T if you are paying attention. Do not press z or m.</div>","Astronomy","T3","T3","AttentionCheck","true","T3","true",""
"","2898","html-keyboard-response","100","2.0.0","313772","p8mb85b004k","panda","m","<div style=""font-size:30pt;"">The sun revolves around the earth.</div>","Astronomy","F","T","Solar system","false","F","true",""
"","2909","html-keyboard-response","101","2.0.0","317183","p8mb85b004k","panda","z","<div style=""font-size:30pt;"">Phases of the moon are caused by changes in illumination.</div>","Astronomy","T","T","Lunar phase","true","T","true",""
"","1075","html-keyboard-response","102","2.0.0","318759","p8mb85b004k","panda","z","<div style=""font-size:30pt;"">The sun produces light.</div>","Astronomy","T","T","Star","true","T","true",""
"","1858","html-keyboard-response","103","2.0.0","321119","p8mb85b004k","panda","m","<div style=""font-size:30pt;"">Asteroids are more massive than planets.</div>","Astronomy","F","F","Planet","true","F","true",""
"","1489","html-keyboard-response","104","2.0.0","323110","p8mb85b004k","panda","z","<div style=""font-size:30pt;"">Planets are more massive than moons.</div>","Astronomy","T","T","Planet","true","T","true",""
"","1389","html-keyboard-response","105","2.0.0","325002","p8mb85b004k","panda","m","<div style=""font-size:30pt;"">Stars are more massive than planets.</div>","Astronomy","T","F","Planet","false","F","false",""
"","2743","html-keyboard-response","106","2.0.0","328247","p8mb85b004k","panda","m","<div style=""font-size:30pt;"">Phases of the moon are caused by clouds.</div>","Astronomy","F","F","Lunar phase","true","F","true",""
"","1413","html-keyboard-response","107","2.0.0","330163","p8mb85b004k","panda","m","<div style=""font-size:30pt;"">The sun produces gravity.</div>","Astronomy","T","F","Star","false","F","false",""
"","1695","html-keyboard-response","108","2.0.0","332360","p8mb85b004k","panda","m","<div style=""font-size:30pt;"">The sun revolves around the moon.</div>","Astronomy","F","F","Solar system","true","F","true",""
"","1323","html-keyboard-response","109","2.0.0","334185","p8mb85b004k","panda","z","<div style=""font-size:30pt;"">The earth's tilt causes the seasons.</div>","Astronomy","T","F","Season","false","T","true",""
"","1888","html-keyboard-response","110","2.0.0","336574","p8mb85b004k","panda","m","<div style=""font-size:30pt;"">The earth's rotation causes the seasons.</div>","Astronomy","F","F","Season","true","F","true",""
"","2322","html-keyboard-response","111","2.0.0","339399","p8mb85b004k","panda","m","<div style=""font-size:30pt;"">A change in overall sunlight causes the seasons.</div>","Astronomy","T","T","Season","true","F","false",""
"","3739","html-keyboard-response","112","2.0.0","343640","p8mb85b004k","panda","m","<div style=""font-size:30pt;"">The earth's distance from the sun causes the seasons.</div>","Astronomy","F","T","Season","false","F","true",""
"","2685","html-keyboard-response","113","2.0.0","346827","p8mb85b004k","panda","m","<p>The next 20 statements will be about <b>Germs</b>. Press any key to continue.</p>","","","","","","","",""
"","3181","html-keyboard-response","114","2.0.0","350009","p8mb85b004k","panda","z","<div style=""font-size:30pt;"">Rotting meat contains germs.</div>","Germs","T","T","Contamination","true","T","true",""
"","1164","html-keyboard-response","115","2.0.0","351675","p8mb85b004k","panda","z","<div style=""font-size:30pt;"">Urine contains germs.</div>","Germs","F","T","Contamination","false","T","false",""
"","1133","html-keyboard-response","116","2.0.0","353310","p8mb85b004k","panda","m","<div style=""font-size:30pt;"">Sunshine contains germs.</div>","Germs","F","F","Contamination","true","F","true",""
"","1546","html-keyboard-response","117","2.0.0","355358","p8mb85b004k","panda","m","<div style=""font-size:30pt;"">Water kills germs.</div>","Germs","F","T","Sterilization","false","F","true",""
"","1348","html-keyboard-response","118","2.0.0","357209","p8mb85b004k","panda","z","<div style=""font-size:30pt;"">Germs enter the body through the skin.</div>","Germs","F","T","Infection","false","T","false",""
"","1079","html-keyboard-response","119","2.0.0","358790","p8mb85b004k","panda","z","<div style=""font-size:30pt;"">Being sneezed on can make a person sick.</div>","Germs","T","T","Contagion","true","T","true",""
"","793","html-keyboard-response","120","2.0.0","360085","p8mb85b004k","panda","z","<div style=""font-size:30pt;"">Being cold can make a person sick.</div>","Germs","F","T","Contagion","false","T","false",""
"","1265","html-keyboard-response","121","2.0.0","361853","p8mb85b004k","panda","z","<div style=""font-size:30pt;"">Dish sponges contain germs.</div>","Germs","T","F","Contamination","false","T","true",""
"","1245","html-keyboard-response","122","2.0.0","363599","p8mb85b004k","panda","m","<div style=""font-size:30pt;"">Germs have a shape.</div>","Germs","T","T","Microbe","true","F","false",""
"","1232","html-keyboard-response","123","2.0.0","365334","p8mb85b004k","panda","z","<div style=""font-size:30pt;"">Germs enter the body through cuts.</div>","Germs","T","T","Infection","true","T","true",""
"","973","html-keyboard-response","124","2.0.0","366809","p8mb85b004k","panda","z","<div style=""font-size:30pt;"">Germs have DNA.</div>","Germs","T","F","Microbe","false","T","true",""
"","831","html-keyboard-response","125","2.0.0","368142","p8mb85b004k","panda","m","<div style=""font-size:30pt;"">Germs have feelings.</div>","Germs","F","F","Microbe","true","F","true",""
"","1958","html-keyboard-response","126","2.0.0","370602","p8mb85b004k","panda","m","<div style=""font-size:30pt;"">Being happy can make a person sick.</div>","Germs","F","F","Contagion","true","F","true",""
"","959","html-keyboard-response","127","2.0.0","372063","p8mb85b004k","panda","z","<div style=""font-size:30pt;"">Alcohol kills germs.</div>","Germs","T","T","Sterilization","true","T","true",""
"","799","html-keyboard-response","128","2.0.0","373364","p8mb85b004k","panda","z","<div style=""font-size:30pt;"">Germs enter the body through the eyes.</div>","Germs","T","F","Infection","false","T","true",""
"","1650","html-keyboard-response","129","2.0.0","375516","p8mb85b004k","panda","m","<div style=""font-size:30pt;"">Kindness kills germs.</div>","Germs","F","F","Sterilization","true","F","true",""
"","1369","html-keyboard-response","130","2.0.0","377387","p8mb85b004k","panda","m","<div style=""font-size:30pt;"">Germs have an odor.</div>","Germs","F","T","Microbe","false","F","true",""
"","1786","html-keyboard-response","131","2.0.0","379675","p8mb85b004k","panda","z","<div style=""font-size:30pt;"">Germs enter the body through the hair.</div>","Germs","F","F","Infection","true","T","false",""
"","1182","html-keyboard-response","132","2.0.0","381359","p8mb85b004k","panda","z","<div style=""font-size:30pt;"">Heat kills germs.</div>","Germs","T","F","Sterilization","false","T","true",""
"","1402","html-keyboard-response","133","2.0.0","383263","p8mb85b004k","panda","z","<div style=""font-size:30pt;"">Being depressed can make a person sick.</div>","Germs","T","F","Contagion","false","T","true",""
"","1204","html-keyboard-response","134","2.0.0","384969","p8mb85b004k","panda","t","<div style=""font-size:30pt;"">Press T if you are paying attention. Do not press z or m.</div>","Germs","T3","T3","AttentionCheck","true","T3","true",""
"","1206","html-keyboard-response","135","2.0.0","386677","p8mb85b004k","panda"," ","<p>The next 20 statements will be about <b>Physiology</b>. Press any key to continue.</p>","","","","","","","",""
"","1299","html-keyboard-response","136","2.0.0","387976","p8mb85b004k","panda","z","<div style=""font-size:30pt;"">Coral is alive.</div>","Physiology","T","F","Life","false","T","true",""
"","1264","html-keyboard-response","137","2.0.0","389742","p8mb85b004k","panda","m","<div style=""font-size:30pt;"">Clouds can die.</div>","Physiology","F","T","Death","false","F","true",""
"","901","html-keyboard-response","138","2.0.0","391145","p8mb85b004k","panda","z","<div style=""font-size:30pt;"">Turtles can die.</div>","Physiology","T","T","Death","true","T","true",""
"","936","html-keyboard-response","139","2.0.0","392583","p8mb85b004k","panda","m","<div style=""font-size:30pt;"">Chairs can reproduce.</div>","Physiology","F","F","Reproduction","true","F","true",""
"","2844","html-keyboard-response","140","2.0.0","395929","p8mb85b004k","panda","z","<div style=""font-size:30pt;"">Bacteria turn food into energy.</div>","Physiology","T","F","Metabolism","false","T","true",""
"","1622","html-keyboard-response","141","2.0.0","398053","p8mb85b004k","panda","z","<div style=""font-size:30pt;"">A baby can be a niece or a nephew.</div>","Physiology","T","T","Kinship","true","T","true",""
"","1464","html-keyboard-response","142","2.0.0","400019","p8mb85b004k","panda","z","<div style=""font-size:30pt;"">The sun is alive.</div>","Physiology","F","T","Life","false","T","false",""
"","1168","html-keyboard-response","143","2.0.0","401690","p8mb85b004k","panda","m","<div style=""font-size:30pt;"">Screwdrivers can die.</div>","Physiology","F","F","Death","true","F","true",""
"","1009","html-keyboard-response","144","2.0.0","403201","p8mb85b004k","panda","z","<div style=""font-size:30pt;"">Mushrooms can die.</div>","Physiology","T","F","Death","false","T","true",""
"","1782","html-keyboard-response","145","2.0.0","405486","p8mb85b004k","panda","m","<div style=""font-size:30pt;"">A baby can be a mother or a father.</div>","Physiology","F","F","Kinship","true","F","true",""
"","2278","html-keyboard-response","146","2.0.0","408266","p8mb85b004k","panda","z","<div style=""font-size:30pt;"">People turn food into energy.</div>","Physiology","T","T","Metabolism","true","T","true",""
"","1314","html-keyboard-response","147","2.0.0","410081","p8mb85b004k","panda","z","<div style=""font-size:30pt;"">Tigers can reproduce.</div>","Physiology","T","T","Reproduction","true","T","true",""
"","1127","html-keyboard-response","148","2.0.0","411710","p8mb85b004k","panda","m","<div style=""font-size:30pt;"">Rocks turn food into energy.</div>","Physiology","F","F","Metabolism","true","F","true",""
"","1200","html-keyboard-response","149","2.0.0","413412","p8mb85b004k","panda","m","<div style=""font-size:30pt;"">A baby can be an uncle or an aunt.</div>","Physiology","T","F","Kinship","false","F","false",""
"","2953","html-keyboard-response","150","2.0.0","416868","p8mb85b004k","panda","m","<div style=""font-size:30pt;"">A baby can be identical to an older sibling.</div>","Physiology","F","T","Kinship","false","F","true",""
"","946","html-keyboard-response","151","2.0.0","418316","p8mb85b004k","panda","z","<div style=""font-size:30pt;"">Plants turn food into energy.</div>","Physiology","F","T","Metabolism","false","T","false",""
"","948","html-keyboard-response","152","2.0.0","419766","p8mb85b004k","panda","z","<div style=""font-size:30pt;"">Caterpillars can reproduce.</div>","Physiology","F","T","Reproduction","false","T","false",""
"","751","html-keyboard-response","153","2.0.0","421019","p8mb85b004k","panda","z","<div style=""font-size:30pt;"">Fish are alive.</div>","Physiology","T","T","Life","true","T","true",""
"","721","html-keyboard-response","154","2.0.0","422243","p8mb85b004k","panda","m","<div style=""font-size:30pt;"">Rocks are alive.</div>","Physiology","F","F","Life","true","F","true",""
"","1829","html-keyboard-response","155","2.0.0","424574","p8mb85b004k","panda","m","<div style=""font-size:30pt;"">Ferns can reproduce.</div>","Physiology","T","F","Reproduction","false","F","false",""
"","1164","html-keyboard-response","156","2.0.0","426240","p8mb85b004k","panda","t","<div style=""font-size:30pt;"">Press T if you are paying attention. Do not press z or m.</div>","Physiology","T3","T3","AttentionCheck","true","T3","true",""
"","1771","html-keyboard-response","157","2.0.0","428514","p8mb85b004k","panda"," ","
      <p>Thank you for completing this portion of the 
      experiment. We now have a few  questions for you.</p>
      <p>Press any key to proceed, and click submit once you are 
      done with the questions. Thanks! </p>
      ","","","","","","","",""
"","3667","survey-multi-choice","158","null","432184","p8mb85b004k","panda","{""grade"":""4th Year"",""gender"":""Female""}","","","","","","","","","[0,1]"
"","19793","survey","159","4.0.0","452028","p8mb85b004k","panda","{""age"":21,""major"":""Cognitive Science"",""experiment_topic"":""whether we know basic questions about a certain topic"",""technical_difficulties"":""no""}","","","","","","","","",""
