"success","rt","trial_type","trial_index","plugin_version","time_elapsed","random_id","participant_id","response","stimulus","category","correct_response","naive_theory","concept","is_consistent","response_tf","correct","question_order"
"true","2054","fullscreen","0","null","3059","p96ca4x9ljz","lion","","","","","","","","","",""
"","2705","survey-text","1","2.0.0","5770","p96ca4x9ljz","lion","{""participant_id"":""lion""}","","","","","","","","",""
"","7751","html-keyboard-response","2","2.0.0","13522","p96ca4x9ljz","lion"," ","<p>Welcome to the experiment.<br><br>You will see 140 statements about various topics.<br><br>Please read the statements and respond with whether you think they are <b>true (Z key)</b> or <b>false (M key)</b> as quickly as possible!<br><br>Press any key to begin.</p>","","","","","","","",""
"","1687","html-keyboard-response","3","2.0.0","15209","p96ca4x9ljz","lion"," ","<p>The next 20 statements will be about <b>Physiology</b>. Press any key to continue.</p>","","","","","","","",""
"","3391","html-keyboard-response","4","2.0.0","18601","p96ca4x9ljz","lion","z","<div style=""font-size:30pt;"">Caterpillars can reproduce.</div>","Physiology","F","T","Reproduction","false","T","false",""
"","1603","html-keyboard-response","5","2.0.0","20706","p96ca4x9ljz","lion","z","<div style=""font-size:30pt;"">Turtles can die.</div>","Physiology","T","T","Death","true","T","true",""
"","1706","html-keyboard-response","6","2.0.0","22914","p96ca4x9ljz","lion","z","<div style=""font-size:30pt;"">People turn food into energy.</div>","Physiology","T","T","Metabolism","true","T","true",""
"","1754","html-keyboard-response","7","2.0.0","25170","p96ca4x9ljz","lion","z","<div style=""font-size:30pt;"">A baby can be a niece or a nephew.</div>","Physiology","T","T","Kinship","true","T","true",""
"","2401","html-keyboard-response","8","2.0.0","28074","p96ca4x9ljz","lion","m","<div style=""font-size:30pt;"">Screwdrivers can die.</div>","Physiology","F","F","Death","true","F","true",""
"","6586","html-keyboard-response","9","2.0.0","35162","p96ca4x9ljz","lion","m","<div style=""font-size:30pt;"">A baby can be identical to an older sibling.</div>","Physiology","F","T","Kinship","false","F","true",""
"","1370","html-keyboard-response","10","2.0.0","37034","p96ca4x9ljz","lion","m","<div style=""font-size:30pt;"">Chairs can reproduce.</div>","Physiology","F","F","Reproduction","true","F","true",""
"","1034","html-keyboard-response","11","2.0.0","38570","p96ca4x9ljz","lion","m","<div style=""font-size:30pt;"">Clouds can die.</div>","Physiology","F","T","Death","false","F","true",""
"","1202","html-keyboard-response","12","2.0.0","40274","p96ca4x9ljz","lion","z","<div style=""font-size:30pt;"">Tigers can reproduce.</div>","Physiology","T","T","Reproduction","true","T","true",""
"","1467","html-keyboard-response","13","2.0.0","42242","p96ca4x9ljz","lion","z","<div style=""font-size:30pt;"">Coral is alive.</div>","Physiology","T","F","Life","false","T","true",""
"","2154","html-keyboard-response","14","2.0.0","44898","p96ca4x9ljz","lion","t","<div style=""font-size:30pt;"">Press T if you are paying attention. Do not press z or m.</div>","Physiology","T3","T3","AttentionCheck","true","T3","true",""
"","3018","html-keyboard-response","15","2.0.0","48419","p96ca4x9ljz","lion","m","<div style=""font-size:30pt;"">Rocks are alive.</div>","Physiology","F","F","Life","true","F","true",""
"","3960","html-keyboard-response","16","2.0.0","52881","p96ca4x9ljz","lion","m","<div style=""font-size:30pt;"">Ferns can reproduce.</div>","Physiology","T","F","Reproduction","false","F","false",""
"","4211","html-keyboard-response","17","2.0.0","57594","p96ca4x9ljz","lion","z","<div style=""font-size:30pt;"">Fish are alive.</div>","Physiology","T","T","Life","true","T","true",""
"","1420","html-keyboard-response","18","2.0.0","59515","p96ca4x9ljz","lion","m","<div style=""font-size:30pt;"">Rocks turn food into energy.</div>","Physiology","F","F","Metabolism","true","F","true",""
"","1217","html-keyboard-response","19","2.0.0","61234","p96ca4x9ljz","lion","z","<div style=""font-size:30pt;"">Mushrooms can die.</div>","Physiology","T","F","Death","false","T","true",""
"","1058","html-keyboard-response","20","2.0.0","62795","p96ca4x9ljz","lion","z","<div style=""font-size:30pt;"">Plants turn food into energy.</div>","Physiology","F","T","Metabolism","false","T","false",""
"","1186","html-keyboard-response","21","2.0.0","64483","p96ca4x9ljz","lion","m","<div style=""font-size:30pt;"">The sun is alive.</div>","Physiology","F","T","Life","false","F","true",""
"","2122","html-keyboard-response","22","2.0.0","67107","p96ca4x9ljz","lion","m","<div style=""font-size:30pt;"">A baby can be a mother or a father.</div>","Physiology","F","F","Kinship","true","F","true",""
"","2915","html-keyboard-response","23","2.0.0","70523","p96ca4x9ljz","lion","m","<div style=""font-size:30pt;"">A baby can be an uncle or an aunt.</div>","Physiology","T","F","Kinship","false","F","false",""
"","1706","html-keyboard-response","24","2.0.0","72731","p96ca4x9ljz","lion","z","<div style=""font-size:30pt;"">Bacteria turn food into energy.</div>","Physiology","T","F","Metabolism","false","T","true",""
"","1266","html-keyboard-response","25","2.0.0","74498","p96ca4x9ljz","lion"," ","<p>The next 20 statements will be about <b>Genetics</b>. Press any key to continue.</p>","","","","","","","",""
"","4256","html-keyboard-response","26","2.0.0","78755","p96ca4x9ljz","lion","m","<div style=""font-size:30pt;"">Immunity to chickenpox is heritable.</div>","Genetics","F","T","Heritability","false","F","true",""
"","1906","html-keyboard-response","27","2.0.0","81163","p96ca4x9ljz","lion","m","<div style=""font-size:30pt;"">Sunscreen can change one's genome.</div>","Genetics","F","F","Mutation","true","F","true",""
"","2234","html-keyboard-response","28","2.0.0","83899","p96ca4x9ljz","lion","m","<div style=""font-size:30pt;"">Exercise can change one's genome.</div>","Genetics","F","T","Mutation","false","F","true",""
"","1699","html-keyboard-response","29","2.0.0","86099","p96ca4x9ljz","lion","m","<div style=""font-size:30pt;"">Men have more chromosomes than women.</div>","Genetics","F","F","Chromosome","true","F","true",""
"","1338","html-keyboard-response","30","2.0.0","87939","p96ca4x9ljz","lion","m","<div style=""font-size:30pt;"">Pierced ears are heritable.</div>","Genetics","F","F","Heritability","true","F","true",""
"","1635","html-keyboard-response","31","2.0.0","90075","p96ca4x9ljz","lion","t","<div style=""font-size:30pt;"">Press T if you are paying attention. Do not press z or m.</div>","Genetics","T3","T3","AttentionCheck","true","T3","true",""
"","5770","html-keyboard-response","32","2.0.0","96348","p96ca4x9ljz","lion","z","<div style=""font-size:30pt;"">Radiation can change one's genome.</div>","Genetics","T","T","Mutation","true","T","true",""
"","6283","html-keyboard-response","33","2.0.0","103132","p96ca4x9ljz","lion","m","<div style=""font-size:30pt;"">Skin cells have more chromosomes than egg cells.</div>","Genetics","T","F","Chromosome","false","F","false",""
"","4235","html-keyboard-response","34","2.0.0","107868","p96ca4x9ljz","lion","m","<div style=""font-size:30pt;"">Genes that code for eye color can be found in the eye.</div>","Genetics","T","T","Expression","true","F","false",""
"","2074","html-keyboard-response","35","2.0.0","110444","p96ca4x9ljz","lion","m","<div style=""font-size:30pt;"">Genes that code for eye color can be found in the liver.</div>","Genetics","T","F","Expression","false","F","false",""
"","3348","html-keyboard-response","36","2.0.0","114294","p96ca4x9ljz","lion","m","<div style=""font-size:30pt;"">A blue-eyed baby must have two blue-eyed parents.</div>","Genetics","F","T","Dominance","false","F","true",""
"","1985","html-keyboard-response","37","2.0.0","116780","p96ca4x9ljz","lion","z","<div style=""font-size:30pt;"">Two brown-eyed parents could have a blue-eyed baby.</div>","Genetics","T","F","Dominance","false","T","true",""
"","3044","html-keyboard-response","38","2.0.0","120325","p96ca4x9ljz","lion","m","<div style=""font-size:30pt;"">Humans have more chromosomes than mosquitoes.</div>","Genetics","T","T","Chromosome","true","F","false",""
"","5297","html-keyboard-response","39","2.0.0","126125","p96ca4x9ljz","lion","m","<div style=""font-size:30pt;"">Genes that code for eye color can be found in tears.</div>","Genetics","F","T","Expression","false","F","true",""
"","2090","html-keyboard-response","40","2.0.0","128717","p96ca4x9ljz","lion","m","<div style=""font-size:30pt;"">Adults have more chromosomes than children.</div>","Genetics","F","T","Chromosome","false","F","true",""
"","1538","html-keyboard-response","41","2.0.0","130757","p96ca4x9ljz","lion","z","<div style=""font-size:30pt;"">Intelligence is heritable.</div>","Genetics","T","F","Heritability","false","T","true",""
"","3121","html-keyboard-response","42","2.0.0","134381","p96ca4x9ljz","lion","m","<div style=""font-size:30pt;"">Two blue-eyed parents could have a brown-eyed baby.</div>","Genetics","F","F","Dominance","true","F","true",""
"","2395","html-keyboard-response","43","2.0.0","137277","p96ca4x9ljz","lion","z","<div style=""font-size:30pt;"">Hair color is heritable.</div>","Genetics","T","T","Heritability","true","T","true",""
"","2330","html-keyboard-response","44","2.0.0","140109","p96ca4x9ljz","lion","z","<div style=""font-size:30pt;"">Genes that code for eye color can be found in hair.</div>","Genetics","F","F","Expression","true","T","false",""
"","1889","html-keyboard-response","45","2.0.0","142500","p96ca4x9ljz","lion","m","<div style=""font-size:30pt;"">Viruses can change one's genome.</div>","Genetics","T","F","Mutation","false","F","false",""
"","2611","html-keyboard-response","46","2.0.0","145613","p96ca4x9ljz","lion","z","<div style=""font-size:30pt;"">Two brown-eyed parents could have a brown-eyed baby.</div>","Genetics","T","T","Dominance","true","T","true",""
"","1090","html-keyboard-response","47","2.0.0","147205","p96ca4x9ljz","lion"," ","<p>The next 20 statements will be about <b>Mechanics</b>. Press any key to continue.</p>","","","","","","","",""
"","1799","html-keyboard-response","48","2.0.0","149005","p96ca4x9ljz","lion","t","<div style=""font-size:30pt;"">Press T if you are paying attention. Do not press z or m.</div>","Mechanics","T3","T3","AttentionCheck","true","T3","true",""
"","3620","html-keyboard-response","49","2.0.0","153126","p96ca4x9ljz","lion","m","<div style=""font-size:30pt;"">A moving bullet loses speed.</div>","Mechanics","T","T","Velocity","true","F","false",""
"","3042","html-keyboard-response","50","2.0.0","156669","p96ca4x9ljz","lion","m","<div style=""font-size:30pt;"">Color can be transferred from one object to another.</div>","Mechanics","F","F","Momentum","true","F","true",""
"","1306","html-keyboard-response","51","2.0.0","158478","p96ca4x9ljz","lion","z","<div style=""font-size:30pt;"">Forces can be strong or weak.</div>","Mechanics","T","T","Force","true","T","true",""
"","38050","html-keyboard-response","52","2.0.0","197031","p96ca4x9ljz","lion","z","<div style=""font-size:30pt;"">Momentum can be transferred from one object to another.</div>","Mechanics","T","T","Momentum","true","T","true",""
"","5689","html-keyboard-response","53","2.0.0","203223","p96ca4x9ljz","lion","z","<div style=""font-size:30pt;"">Energy can be transferred from one object to another.</div>","Mechanics","T","F","Momentum","false","T","true",""
"","1786","html-keyboard-response","54","2.0.0","205511","p96ca4x9ljz","lion","m","<div style=""font-size:30pt;"">A moving bullet loses weight.</div>","Mechanics","F","F","Velocity","true","F","true",""
"","2235","html-keyboard-response","55","2.0.0","208247","p96ca4x9ljz","lion","m","<div style=""font-size:30pt;"">Pointy objects fall through air faster than flat objects.</div>","Mechanics","T","F","Gravity","false","F","false",""
"","4362","html-keyboard-response","56","2.0.0","213111","p96ca4x9ljz","lion","m","<div style=""font-size:30pt;"">Heavy balls fall through air faster than light balls.</div>","Mechanics","F","T","Gravity","false","F","true",""
"","2794","html-keyboard-response","57","2.0.0","216407","p96ca4x9ljz","lion","z","<div style=""font-size:30pt;"">Constant motion requires constant force.</div>","Mechanics","F","T","Acceleration","false","T","false",""
"","2306","html-keyboard-response","58","2.0.0","219216","p96ca4x9ljz","lion","z","<div style=""font-size:30pt;"">Forces can be balanced or unbalanced.</div>","Mechanics","T","F","Force","false","T","true",""
"","14595","html-keyboard-response","59","2.0.0","234312","p96ca4x9ljz","lion","m","<div style=""font-size:30pt;"">Bright objects fall through air faster than dark objects.</div>","Mechanics","F","F","Gravity","true","F","true",""
"","2298","html-keyboard-response","60","2.0.0","237112","p96ca4x9ljz","lion","z","<div style=""font-size:30pt;"">Forces can be transferred from one object to another.</div>","Mechanics","F","T","Momentum","false","T","false",""
"","2138","html-keyboard-response","61","2.0.0","239752","p96ca4x9ljz","lion","m","<div style=""font-size:30pt;"">A moving bullet loses force.</div>","Mechanics","F","T","Velocity","false","F","true",""
"","2299","html-keyboard-response","62","2.0.0","242552","p96ca4x9ljz","lion","m","<div style=""font-size:30pt;"">Anvils fall through air faster than feathers.</div>","Mechanics","T","T","Gravity","true","F","false",""
"","11330","html-keyboard-response","63","2.0.0","254384","p96ca4x9ljz","lion","z","<div style=""font-size:30pt;"">Constant speed requires constant acceleration.</div>","Mechanics","F","F","Acceleration","true","T","false",""
"","1587","html-keyboard-response","64","2.0.0","256473","p96ca4x9ljz","lion","z","<div style=""font-size:30pt;"">Constant acceleration requires constant force.</div>","Mechanics","T","T","Acceleration","true","T","true",""
"","1874","html-keyboard-response","65","2.0.0","258849","p96ca4x9ljz","lion","m","<div style=""font-size:30pt;"">Forces can be male or female.</div>","Mechanics","F","F","Force","true","F","true",""
"","1874","html-keyboard-response","66","2.0.0","261225","p96ca4x9ljz","lion","m","<div style=""font-size:30pt;"">A moving bullet loses height.</div>","Mechanics","T","F","Velocity","false","F","false",""
"","2379","html-keyboard-response","67","2.0.0","264105","p96ca4x9ljz","lion","m","<div style=""font-size:30pt;"">Constant force can yield constant rest.</div>","Mechanics","T","F","Acceleration","false","F","false",""
"","164600","html-keyboard-response","68","2.0.0","914640","p96ca4x9ljz","lion","m","<div style=""font-size:30pt;"">Forces can be straight or curved.</div>","Mechanics","F","T","Force","false","F","true",""
"","969","html-keyboard-response","69","2.0.0","916112","p96ca4x9ljz","lion"," ","<p>The next 20 statements will be about <b>Fractions</b>. Press any key to continue.</p>","","","","","","","",""
"","3519","html-keyboard-response","70","2.0.0","919632","p96ca4x9ljz","lion","m","<div style=""font-size:30pt;"">4 divided by 2/1 is 2.</div>","Fractions","T","T","Division","true","F","false",""
"","2402","html-keyboard-response","71","2.0.0","922535","p96ca4x9ljz","lion","z","<div style=""font-size:30pt;"">1/3 plus 1/3 is 2/3.</div>","Fractions","T","T","Addition","true","T","true",""
"","20186","html-keyboard-response","72","2.0.0","943224","p96ca4x9ljz","lion","z","<div style=""font-size:30pt;"">There are numbers between 1 and 3.</div>","Fractions","T","T","Infinite density","true","T","true",""
"","2363","html-keyboard-response","73","2.0.0","946089","p96ca4x9ljz","lion","z","<div style=""font-size:30pt;"">There are numbers between 1/3 and 1/2.</div>","Fractions","T","F","Infinite density","false","T","true",""
"","5466","html-keyboard-response","74","2.0.0","952057","p96ca4x9ljz","lion","m","<div style=""font-size:30pt;"">2/3 plus 2/4 is 2/7.</div>","Fractions","F","T","Addition","false","F","true",""
"","2883","html-keyboard-response","75","2.0.0","955441","p96ca4x9ljz","lion","m","<div style=""font-size:30pt;"">There are numbers between 10 and 10.</div>","Fractions","F","F","Infinite density","true","F","true",""
"","2395","html-keyboard-response","76","2.0.0","958337","p96ca4x9ljz","lion","z","<div style=""font-size:30pt;"">There are numbers between 1/10 and 10/100.</div>","Fractions","F","T","Infinite density","false","T","false",""
"","1618","html-keyboard-response","77","2.0.0","960457","p96ca4x9ljz","lion","t","<div style=""font-size:30pt;"">Press T if you are paying attention. Do not press z or m.</div>","Fractions","T3","T3","AttentionCheck","true","T3","true",""
"","2498","html-keyboard-response","78","2.0.0","963457","p96ca4x9ljz","lion","m","<div style=""font-size:30pt;"">1/3 plus 1/3 is 1/3.</div>","Fractions","F","F","Addition","true","F","true",""
"","5418","html-keyboard-response","79","2.0.0","969378","p96ca4x9ljz","lion","z","<div style=""font-size:30pt;"">4 divided by 1/2 is 8.</div>","Fractions","T","F","Division","false","T","true",""
"","2538","html-keyboard-response","80","2.0.0","972417","p96ca4x9ljz","lion","z","<div style=""font-size:30pt;"">1/10 plus 1/10 is 1/5.</div>","Fractions","T","F","Addition","false","T","true",""
"","5250","html-keyboard-response","81","2.0.0","978169","p96ca4x9ljz","lion","z","<div style=""font-size:30pt;"">8 divided by 1/2 is 4.</div>","Fractions","F","T","Division","false","T","false",""
"","1570","html-keyboard-response","82","2.0.0","980242","p96ca4x9ljz","lion","z","<div style=""font-size:30pt;"">All fractions are expressible as decimals.</div>","Fractions","F","T","Conversion","false","T","false",""
"","4273","html-keyboard-response","83","2.0.0","985018","p96ca4x9ljz","lion","z","<div style=""font-size:30pt;"">1/13 is greater than 1/30.</div>","Fractions","T","F","Ordering","false","T","true",""
"","8035","html-keyboard-response","84","2.0.0","993554","p96ca4x9ljz","lion","m","<div style=""font-size:30pt;"">1/17 is greater than 16/17.</div>","Fractions","F","F","Ordering","true","F","true",""
"","5226","html-keyboard-response","85","2.0.0","999282","p96ca4x9ljz","lion","m","<div style=""font-size:30pt;"">8 divided by 2/1 is 3.</div>","Fractions","F","F","Division","true","F","true",""
"","1683","html-keyboard-response","86","2.0.0","1001466","p96ca4x9ljz","lion","z","<div style=""font-size:30pt;"">All decimals are expressible as fractions.</div>","Fractions","T","T","Conversion","true","T","true",""
"","9050","html-keyboard-response","87","2.0.0","1011019","p96ca4x9ljz","lion","z","<div style=""font-size:30pt;"">All integers are expressible as fractions.</div>","Fractions","T","F","Conversion","false","T","true",""
"","21579","html-keyboard-response","88","2.0.0","1033100","p96ca4x9ljz","lion","z","<div style=""font-size:30pt;"">12/13 is greater than 1/13.</div>","Fractions","T","T","Ordering","true","T","true",""
"","7833","html-keyboard-response","89","2.0.0","1041435","p96ca4x9ljz","lion","m","<div style=""font-size:30pt;"">1/17 is greater than 1/9.</div>","Fractions","F","T","Ordering","false","F","true",""
"","2883","html-keyboard-response","90","2.0.0","1044820","p96ca4x9ljz","lion","m","<div style=""font-size:30pt;"">All fractions are expressible as integers.</div>","Fractions","F","F","Conversion","true","F","true",""
"","1138","html-keyboard-response","91","2.0.0","1046460","p96ca4x9ljz","lion"," ","<p>The next 20 statements will be about <b>Germs</b>. Press any key to continue.</p>","","","","","","","",""
"","1807","html-keyboard-response","92","2.0.0","1048267","p96ca4x9ljz","lion","m","<div style=""font-size:30pt;"">Germs have an odor.</div>","Germs","F","T","Microbe","false","F","true",""
"","3162","html-keyboard-response","93","2.0.0","1051932","p96ca4x9ljz","lion","z","<div style=""font-size:30pt;"">Urine contains germs.</div>","Germs","F","T","Contamination","false","T","false",""
"","1610","html-keyboard-response","94","2.0.0","1054044","p96ca4x9ljz","lion","z","<div style=""font-size:30pt;"">Being depressed can make a person sick.</div>","Germs","T","F","Contagion","false","T","true",""
"","1202","html-keyboard-response","95","2.0.0","1055748","p96ca4x9ljz","lion","z","<div style=""font-size:30pt;"">Being cold can make a person sick.</div>","Germs","F","T","Contagion","false","T","false",""
"","2721","html-keyboard-response","96","2.0.0","1058971","p96ca4x9ljz","lion","z","<div style=""font-size:30pt;"">Germs enter the body through the eyes.</div>","Germs","T","F","Infection","false","T","true",""
"","1571","html-keyboard-response","97","2.0.0","1061044","p96ca4x9ljz","lion","m","<div style=""font-size:30pt;"">Heat kills germs.</div>","Germs","T","F","Sterilization","false","F","false",""
"","3794","html-keyboard-response","98","2.0.0","1065339","p96ca4x9ljz","lion","m","<div style=""font-size:30pt;"">Sunshine contains germs.</div>","Germs","F","F","Contamination","true","F","true",""
"","15619","html-keyboard-response","99","2.0.0","1081461","p96ca4x9ljz","lion","z","<div style=""font-size:30pt;"">Being sneezed on can make a person sick.</div>","Germs","T","T","Contagion","true","T","true",""
"","1297","html-keyboard-response","100","2.0.0","1083260","p96ca4x9ljz","lion","m","<div style=""font-size:30pt;"">Being happy can make a person sick.</div>","Germs","F","F","Contagion","true","F","true",""
"","2307","html-keyboard-response","101","2.0.0","1086069","p96ca4x9ljz","lion","z","<div style=""font-size:30pt;"">Germs enter the body through the skin.</div>","Germs","F","T","Infection","false","T","false",""
"","1386","html-keyboard-response","102","2.0.0","1087957","p96ca4x9ljz","lion","t","<div style=""font-size:30pt;"">Press T if you are paying attention. Do not press z or m.</div>","Germs","T3","T3","AttentionCheck","true","T3","true",""
"","140419","html-keyboard-response","103","2.0.0","1228882","p96ca4x9ljz","lion","m","<div style=""font-size:30pt;"">Germs have feelings.</div>","Germs","F","F","Microbe","true","F","true",""
"","155034","html-keyboard-response","104","2.0.0","1384422","p96ca4x9ljz","lion","m","<div style=""font-size:30pt;"">Kindness kills germs.</div>","Germs","F","F","Sterilization","true","F","true",""
"","2169","html-keyboard-response","105","2.0.0","1387094","p96ca4x9ljz","lion","z","<div style=""font-size:30pt;"">Germs enter the body through cuts.</div>","Germs","T","T","Infection","true","T","true",""
"","3603","html-keyboard-response","106","2.0.0","1391198","p96ca4x9ljz","lion","m","<div style=""font-size:30pt;"">Germs enter the body through the hair.</div>","Germs","F","F","Infection","true","F","true",""
"","1834","html-keyboard-response","107","2.0.0","1393534","p96ca4x9ljz","lion","z","<div style=""font-size:30pt;"">Rotting meat contains germs.</div>","Germs","T","T","Contamination","true","T","true",""
"","1899","html-keyboard-response","108","2.0.0","1395934","p96ca4x9ljz","lion","z","<div style=""font-size:30pt;"">Dish sponges contain germs.</div>","Germs","T","F","Contamination","false","T","true",""
"","1026","html-keyboard-response","109","2.0.0","1397462","p96ca4x9ljz","lion","z","<div style=""font-size:30pt;"">Alcohol kills germs.</div>","Germs","T","T","Sterilization","true","T","true",""
"","1626","html-keyboard-response","110","2.0.0","1399590","p96ca4x9ljz","lion","m","<div style=""font-size:30pt;"">Water kills germs.</div>","Germs","F","T","Sterilization","false","F","true",""
"","2546","html-keyboard-response","111","2.0.0","1402638","p96ca4x9ljz","lion","z","<div style=""font-size:30pt;"">Germs have DNA.</div>","Germs","T","F","Microbe","false","T","true",""
"","1579","html-keyboard-response","112","2.0.0","1404718","p96ca4x9ljz","lion","z","<div style=""font-size:30pt;"">Germs have a shape.</div>","Germs","T","T","Microbe","true","T","true",""
"","978","html-keyboard-response","113","2.0.0","1406199","p96ca4x9ljz","lion"," ","<p>The next 20 statements will be about <b>Evolution</b>. Press any key to continue.</p>","","","","","","","",""
"","21064","html-keyboard-response","114","2.0.0","1427263","p96ca4x9ljz","lion","z","<div style=""font-size:30pt;"">Whales are more closely related to humans than fish.</div>","Evolution","T","F","Common ancestry","false","T","true",""
"","25186","html-keyboard-response","115","2.0.0","1452952","p96ca4x9ljz","lion","z","<div style=""font-size:30pt;"">Humans are more closely related to apes than monkeys.</div>","Evolution","T","T","Common ancestry","true","T","true",""
"","10258","html-keyboard-response","116","2.0.0","1463712","p96ca4x9ljz","lion","z","<div style=""font-size:30pt;"">Evolution requires within-species variation.</div>","Evolution","T","F","Variation","false","T","true",""
"","1971","html-keyboard-response","117","2.0.0","1466184","p96ca4x9ljz","lion","m","<div style=""font-size:30pt;"">Most organisms live in temperate climates.</div>","Evolution","F","F","Selection","true","F","true",""
"","1218","html-keyboard-response","118","2.0.0","1467904","p96ca4x9ljz","lion","z","<div style=""font-size:30pt;"">Biological species evolve.</div>","Evolution","T","T","Adaptation","true","T","true",""
"","1921","html-keyboard-response","119","2.0.0","1470327","p96ca4x9ljz","lion","m","<div style=""font-size:30pt;"">Most organisms die before leaving offspring.</div>","Evolution","T","F","Selection","false","F","false",""
"","1282","html-keyboard-response","120","2.0.0","1472112","p96ca4x9ljz","lion","m","<div style=""font-size:30pt;"">Inanimate objects evolve.</div>","Evolution","F","F","Adaptation","true","F","true",""
"","2307","html-keyboard-response","121","2.0.0","1474921","p96ca4x9ljz","lion","m","<div style=""font-size:30pt;"">Evolution requires differential survival.</div>","Evolution","T","T","Variation","true","F","false",""
"","2713","html-keyboard-response","122","2.0.0","1478136","p96ca4x9ljz","lion","m","<div style=""font-size:30pt;"">Individual organisms evolve.</div>","Evolution","F","T","Adaptation","false","F","true",""
"","7498","html-keyboard-response","123","2.0.0","1486136","p96ca4x9ljz","lion","z","<div style=""font-size:30pt;"">Humans are descended from chimpanzees.</div>","Evolution","F","T","Phylogeny","false","T","false",""
"","4947","html-keyboard-response","124","2.0.0","1491585","p96ca4x9ljz","lion","z","<div style=""font-size:30pt;"">Apes are more closely related to monkeys than humans.</div>","Evolution","F","T","Common ancestry","false","T","false",""
"","2626","html-keyboard-response","125","2.0.0","1494713","p96ca4x9ljz","lion","m","<div style=""font-size:30pt;"">Humans are descended from tree-dwelling creatures.</div>","Evolution","T","T","Phylogeny","true","F","false",""
"","7785","html-keyboard-response","126","2.0.0","1503000","p96ca4x9ljz","lion","z","<div style=""font-size:30pt;"">Most organisms are adapted to their environment.</div>","Evolution","T","T","Selection","true","T","true",""
"","1892","html-keyboard-response","127","2.0.0","1505393","p96ca4x9ljz","lion","m","<div style=""font-size:30pt;"">Most organisms have plenty to eat.</div>","Evolution","F","T","Selection","false","F","true",""
"","1626","html-keyboard-response","128","2.0.0","1507521","p96ca4x9ljz","lion","m","<div style=""font-size:30pt;"">Humans are descended from plants.</div>","Evolution","F","F","Phylogeny","true","F","true",""
"","1890","html-keyboard-response","129","2.0.0","1509913","p96ca4x9ljz","lion","m","<div style=""font-size:30pt;"">Whales are more closely related to plants than fish.</div>","Evolution","F","F","Common ancestry","true","F","true",""
"","6746","html-keyboard-response","130","2.0.0","1517162","p96ca4x9ljz","lion","m","<div style=""font-size:30pt;"">Humans are descended from sea-dwelling creatures.</div>","Evolution","T","F","Phylogeny","false","F","false",""
"","1305","html-keyboard-response","131","2.0.0","1518970","p96ca4x9ljz","lion","t","<div style=""font-size:30pt;"">Press T if you are paying attention. Do not press z or m.</div>","Evolution","T3","T3","AttentionCheck","true","T3","true",""
"","8475","html-keyboard-response","132","2.0.0","1527946","p96ca4x9ljz","lion","z","<div style=""font-size:30pt;"">Computer viruses evolve.</div>","Evolution","T","F","Adaptation","false","T","true",""
"","1578","html-keyboard-response","133","2.0.0","1530026","p96ca4x9ljz","lion","z","<div style=""font-size:30pt;"">Evolution requires climate stability.</div>","Evolution","F","F","Variation","true","T","false",""
"","2378","html-keyboard-response","134","2.0.0","1532906","p96ca4x9ljz","lion","z","<div style=""font-size:30pt;"">Evolution requires long periods of time.</div>","Evolution","F","T","Variation","false","T","false",""
"","930","html-keyboard-response","135","2.0.0","1534338","p96ca4x9ljz","lion"," ","<p>The next 20 statements will be about <b>Waves</b>. Press any key to continue.</p>","","","","","","","",""
"","3480","html-keyboard-response","136","2.0.0","1537818","p96ca4x9ljz","lion","z","<div style=""font-size:30pt;"">Mirrors reflect sound.</div>","Waves","T","F","Reflection","false","T","true",""
"","1810","html-keyboard-response","137","2.0.0","1540130","p96ca4x9ljz","lion","z","<div style=""font-size:30pt;"">Prisms reflect light.</div>","Waves","F","T","Reflection","false","T","false",""
"","11530","html-keyboard-response","138","2.0.0","1552163","p96ca4x9ljz","lion","z","<div style=""font-size:30pt;"">Rainbows contain all colors of light.</div>","Waves","T","T","Light","true","T","true",""
"","1762","html-keyboard-response","139","2.0.0","1554427","p96ca4x9ljz","lion","z","<div style=""font-size:30pt;"">Foam reflects sound.</div>","Waves","F","F","Reflection","true","T","false",""
"","1722","html-keyboard-response","140","2.0.0","1556651","p96ca4x9ljz","lion","m","<div style=""font-size:30pt;"">Sound travels through metal.</div>","Waves","T","F","Propagation","false","F","false",""
"","3114","html-keyboard-response","141","2.0.0","1560267","p96ca4x9ljz","lion","t","<div style=""font-size:30pt;"">Press T if you are paying attention. Do not press z or m.</div>","Waves","T3","T3","AttentionCheck","true","T3","true",""
"","2121","html-keyboard-response","142","2.0.0","1562890","p96ca4x9ljz","lion","z","<div style=""font-size:30pt;"">Sound travels through foam.</div>","Waves","F","F","Propagation","true","T","false",""
"","2236","html-keyboard-response","143","2.0.0","1565627","p96ca4x9ljz","lion","m","<div style=""font-size:30pt;"">Shadows contain all colors of light.</div>","Waves","F","F","Light","true","F","true",""
"","2954","html-keyboard-response","144","2.0.0","1569083","p96ca4x9ljz","lion","m","<div style=""font-size:30pt;"">Sounds can be dead or alive.</div>","Waves","F","F","Sound","true","F","true",""
"","15203","html-keyboard-response","145","2.0.0","1584788","p96ca4x9ljz","lion","z","<div style=""font-size:30pt;"">Sounds can be near or far.</div>","Waves","F","T","Sound","false","T","false",""
"","2250","html-keyboard-response","146","2.0.0","1587540","p96ca4x9ljz","lion","m","<div style=""font-size:30pt;"">Red objects absorb blue light.</div>","Waves","T","F","Color","false","F","false",""
"","1906","html-keyboard-response","147","2.0.0","1589948","p96ca4x9ljz","lion","z","<div style=""font-size:30pt;"">Sounds can be direct or reflected.</div>","Waves","T","F","Sound","false","T","true",""
"","2106","html-keyboard-response","148","2.0.0","1592556","p96ca4x9ljz","lion","z","<div style=""font-size:30pt;"">Red objects absorb red light.</div>","Waves","F","T","Color","false","T","false",""
"","2595","html-keyboard-response","149","2.0.0","1595652","p96ca4x9ljz","lion","z","<div style=""font-size:30pt;"">Mirrors reflect light.</div>","Waves","T","T","Reflection","true","T","true",""
"","2210","html-keyboard-response","150","2.0.0","1598364","p96ca4x9ljz","lion","m","<div style=""font-size:30pt;"">Red objects reflect blue light.</div>","Waves","F","F","Color","true","F","true",""
"","11843","html-keyboard-response","151","2.0.0","1610709","p96ca4x9ljz","lion","z","<div style=""font-size:30pt;"">Black objects reflect all colors of light.</div>","Waves","F","T","Light","false","T","false",""
"","1514","html-keyboard-response","152","2.0.0","1612724","p96ca4x9ljz","lion","z","<div style=""font-size:30pt;"">Sound travels through air.</div>","Waves","T","T","Propagation","true","T","true",""
"","2218","html-keyboard-response","153","2.0.0","1615445","p96ca4x9ljz","lion","z","<div style=""font-size:30pt;"">White light contains all colors of light.</div>","Waves","T","F","Light","false","T","true",""
"","1891","html-keyboard-response","154","2.0.0","1617837","p96ca4x9ljz","lion","z","<div style=""font-size:30pt;"">Sounds can be loud or quiet.</div>","Waves","T","T","Sound","true","T","true",""
"","4754","html-keyboard-response","155","2.0.0","1623093","p96ca4x9ljz","lion","m","<div style=""font-size:30pt;"">Red objects reflect red light.</div>","Waves","T","T","Color","true","F","false",""
"","2546","html-keyboard-response","156","2.0.0","1626140","p96ca4x9ljz","lion","m","<div style=""font-size:30pt;"">Sound travels through a vacuum.</div>","Waves","F","T","Propagation","false","F","true",""
"","1787","html-keyboard-response","157","2.0.0","1628429","p96ca4x9ljz","lion"," ","
      <p>Thank you for completing this portion of the 
      experiment. We now have a few  questions for you.</p>
      <p>Press any key to proceed, and click submit once you are 
      done with the questions. Thanks! </p>
      ","","","","","","","",""
"","4671","survey-multi-choice","158","null","1633103","p96ca4x9ljz","lion","{""grade"":""4th Year"",""gender"":""Female""}","","","","","","","","","[0,1]"
"","22689","survey","159","4.0.0","1655850","p96ca4x9ljz","lion","{""age"":22,""major"":""cog behavioral neuroscience"",""experiment_topic"":""assumptions people make  "",""technical_difficulties"":""no""}","","","","","","","","",""
