"success","rt","trial_type","trial_index","plugin_version","time_elapsed","random_id","participant_id","response","stimulus","category","correct_response","naive_theory","concept","is_consistent","response_tf","correct","question_order"
"true","120819","fullscreen","0","null","121823","ph0b0mc379o","swan","","","","","","","","","",""
"","2910","survey-text","1","2.0.0","124737","ph0b0mc379o","swan","{""participant_id"":""swan""}","","","","","","","","",""
"","17873","html-keyboard-response","2","2.0.0","142611","ph0b0mc379o","swan","m","<p>Welcome to the experiment.<br><br>You will see 140 statements about various topics.<br><br>Please read the statements and respond with whether you think they are <b>true (Z key)</b> or <b>false (M key)</b> as quickly as possible!<br><br>Press any key to begin.</p>","","","","","","","",""
"","1864","html-keyboard-response","3","2.0.0","144477","ph0b0mc379o","swan","z","<p>The next 20 statements will be about <b>Mechanics</b>. Press any key to continue.</p>","","","","","","","",""
"","2514","html-keyboard-response","4","2.0.0","146993","ph0b0mc379o","swan","z","<div style=""font-size:30pt;"">Forces can be transferred from one object to another.</div>","Mechanics","F","T","Momentum","false","T","false",""
"","1401","html-keyboard-response","5","2.0.0","148896","ph0b0mc379o","swan","z","<div style=""font-size:30pt;"">Forces can be balanced or unbalanced.</div>","Mechanics","T","F","Force","false","T","true",""
"","1278","html-keyboard-response","6","2.0.0","150675","ph0b0mc379o","swan","m","<div style=""font-size:30pt;"">Forces can be straight or curved.</div>","Mechanics","F","T","Force","false","F","true",""
"","1393","html-keyboard-response","7","2.0.0","152570","ph0b0mc379o","swan","z","<div style=""font-size:30pt;"">Color can be transferred from one object to another.</div>","Mechanics","F","F","Momentum","true","T","false",""
"","1667","html-keyboard-response","8","2.0.0","154739","ph0b0mc379o","swan","m","<div style=""font-size:30pt;"">Constant force can yield constant rest.</div>","Mechanics","T","F","Acceleration","false","F","false",""
"","1590","html-keyboard-response","9","2.0.0","156832","ph0b0mc379o","swan","m","<div style=""font-size:30pt;"">Anvils fall through air faster than feathers.</div>","Mechanics","T","T","Gravity","true","F","false",""
"","1463","html-keyboard-response","10","2.0.0","158797","ph0b0mc379o","swan","z","<div style=""font-size:30pt;"">A moving bullet loses height.</div>","Mechanics","T","F","Velocity","false","T","true",""
"","2465","html-keyboard-response","11","2.0.0","161765","ph0b0mc379o","swan","z","<div style=""font-size:30pt;"">Constant acceleration requires constant force.</div>","Mechanics","T","T","Acceleration","true","T","true",""
"","4030","html-keyboard-response","12","2.0.0","166296","ph0b0mc379o","swan","m","<div style=""font-size:30pt;"">Constant speed requires constant acceleration.</div>","Mechanics","F","F","Acceleration","true","F","true",""
"","2226","html-keyboard-response","13","2.0.0","169024","ph0b0mc379o","swan","t","<div style=""font-size:30pt;"">Press T if you are paying attention. Do not press z or m.</div>","Mechanics","T3","T3","AttentionCheck","true","T3","true",""
"","1737","html-keyboard-response","14","2.0.0","171263","ph0b0mc379o","swan","m","<div style=""font-size:30pt;"">Forces can be male or female.</div>","Mechanics","F","F","Force","true","F","true",""
"","1983","html-keyboard-response","15","2.0.0","173748","ph0b0mc379o","swan","m","<div style=""font-size:30pt;"">Heavy balls fall through air faster than light balls.</div>","Mechanics","F","T","Gravity","false","F","true",""
"","2628","html-keyboard-response","16","2.0.0","176878","ph0b0mc379o","swan","z","<div style=""font-size:30pt;"">Constant motion requires constant force.</div>","Mechanics","F","T","Acceleration","false","T","false",""
"","1732","html-keyboard-response","17","2.0.0","179111","ph0b0mc379o","swan","m","<div style=""font-size:30pt;"">Bright objects fall through air faster than dark objects.</div>","Mechanics","F","F","Gravity","true","F","true",""
"","1352","html-keyboard-response","18","2.0.0","180966","ph0b0mc379o","swan","z","<div style=""font-size:30pt;"">A moving bullet loses force.</div>","Mechanics","F","T","Velocity","false","T","false",""
"","4517","html-keyboard-response","19","2.0.0","185984","ph0b0mc379o","swan","z","<div style=""font-size:30pt;"">Pointy objects fall through air faster than flat objects.</div>","Mechanics","T","F","Gravity","false","T","true",""
"","1410","html-keyboard-response","20","2.0.0","187896","ph0b0mc379o","swan","z","<div style=""font-size:30pt;"">Forces can be strong or weak.</div>","Mechanics","T","T","Force","true","T","true",""
"","2598","html-keyboard-response","21","2.0.0","190997","ph0b0mc379o","swan","z","<div style=""font-size:30pt;"">Momentum can be transferred from one object to another.</div>","Mechanics","T","T","Momentum","true","T","true",""
"","1347","html-keyboard-response","22","2.0.0","192846","ph0b0mc379o","swan","m","<div style=""font-size:30pt;"">A moving bullet loses weight.</div>","Mechanics","F","F","Velocity","true","F","true",""
"","1644","html-keyboard-response","23","2.0.0","194993","ph0b0mc379o","swan","z","<div style=""font-size:30pt;"">A moving bullet loses speed.</div>","Mechanics","T","T","Velocity","true","T","true",""
"","1387","html-keyboard-response","24","2.0.0","196881","ph0b0mc379o","swan","z","<div style=""font-size:30pt;"">Energy can be transferred from one object to another.</div>","Mechanics","T","F","Momentum","false","T","true",""
"","1894","html-keyboard-response","25","2.0.0","199278","ph0b0mc379o","swan","z","<p>The next 20 statements will be about <b>Matter</b>. Press any key to continue.</p>","","","","","","","",""
"","3090","html-keyboard-response","26","2.0.0","202368","ph0b0mc379o","swan","z","<div style=""font-size:30pt;"">Fire is composed of matter.</div>","Matter","F","T","Mass","false","T","false",""
"","1518","html-keyboard-response","27","2.0.0","204388","ph0b0mc379o","swan","z","<div style=""font-size:30pt;"">Atoms are mostly empty space.</div>","Matter","T","F","Atom","false","T","true",""
"","1527","html-keyboard-response","28","2.0.0","206418","ph0b0mc379o","swan","m","<div style=""font-size:30pt;"">Atoms are visible to the naked eye.</div>","Matter","F","F","Atom","true","F","true",""
"","3312","html-keyboard-response","29","2.0.0","210231","ph0b0mc379o","swan","m","<div style=""font-size:30pt;"">A pound of steel weighs more than a ton of steel.</div>","Matter","F","F","Weight","true","F","true",""
"","2125","html-keyboard-response","30","2.0.0","212859","ph0b0mc379o","swan","m","<div style=""font-size:30pt;"">A pound of steel weighs more than a pound of feathers.</div>","Matter","F","T","Weight","false","F","true",""
"","2325","html-keyboard-response","31","2.0.0","215686","ph0b0mc379o","swan","z","<div style=""font-size:30pt;"">A log can be cut in half.</div>","Matter","T","T","Divisibility","true","T","true",""
"","2328","html-keyboard-response","32","2.0.0","218515","ph0b0mc379o","swan","m","<div style=""font-size:30pt;"">Atoms are weightless.</div>","Matter","F","T","Atom","false","F","true",""
"","1099","html-keyboard-response","33","2.0.0","220116","ph0b0mc379o","swan","z","<div style=""font-size:30pt;"">Air is composed of matter.</div>","Matter","T","F","Mass","false","T","true",""
"","1529","html-keyboard-response","34","2.0.0","222148","ph0b0mc379o","swan","m","<div style=""font-size:30pt;"">Ice is denser than water.</div>","Matter","F","T","Density","false","F","true",""
"","1505","html-keyboard-response","35","2.0.0","224154","ph0b0mc379o","swan","t","<div style=""font-size:30pt;"">Press T if you are paying attention. Do not press z or m.</div>","Matter","T3","T3","AttentionCheck","true","T3","true",""
"","2851","html-keyboard-response","36","2.0.0","227507","ph0b0mc379o","swan","z","<div style=""font-size:30pt;"">A cold penny is denser than a hot penny.</div>","Matter","T","F","Density","false","T","true",""
"","1197","html-keyboard-response","37","2.0.0","229205","ph0b0mc379o","swan","m","<div style=""font-size:30pt;"">An idea can be cut in half.</div>","Matter","F","F","Divisibility","true","F","true",""
"","5476","html-keyboard-response","38","2.0.0","235183","ph0b0mc379o","swan","z","<div style=""font-size:30pt;"">A liter of water weighs more than a liter of ice.</div>","Matter","T","F","Weight","false","T","true",""
"","3104","html-keyboard-response","39","2.0.0","238789","ph0b0mc379o","swan","m","<div style=""font-size:30pt;"">Foam is denser than brick.</div>","Matter","F","F","Density","true","F","true",""
"","1832","html-keyboard-response","40","2.0.0","241122","ph0b0mc379o","swan","m","<div style=""font-size:30pt;"">A shadow can be cut in half.</div>","Matter","F","T","Divisibility","false","F","true",""
"","3448","html-keyboard-response","41","2.0.0","245072","ph0b0mc379o","swan","z","<div style=""font-size:30pt;"">A liter of water weighs more than a liter of air.</div>","Matter","T","T","Weight","true","T","true",""
"","1735","html-keyboard-response","42","2.0.0","247310","ph0b0mc379o","swan","z","<div style=""font-size:30pt;"">Atoms are the constituents of matter.</div>","Matter","T","T","Atom","true","T","true",""
"","934","html-keyboard-response","43","2.0.0","248745","ph0b0mc379o","swan","z","<div style=""font-size:30pt;"">Rocks are composed of matter.</div>","Matter","T","T","Mass","true","T","true",""
"","1110","html-keyboard-response","44","2.0.0","250358","ph0b0mc379o","swan","m","<div style=""font-size:30pt;"">Numbers are composed of matter.</div>","Matter","F","F","Mass","true","F","true",""
"","2117","html-keyboard-response","45","2.0.0","252976","ph0b0mc379o","swan","z","<div style=""font-size:30pt;"">Steel is denser than foam.</div>","Matter","T","T","Density","true","T","true",""
"","1776","html-keyboard-response","46","2.0.0","255254","ph0b0mc379o","swan","z","<div style=""font-size:30pt;"">A grain of sand can be cut in half.</div>","Matter","T","F","Divisibility","false","T","true",""
"","1250","html-keyboard-response","47","2.0.0","257006","ph0b0mc379o","swan","z","<p>The next 20 statements will be about <b>Astronomy</b>. Press any key to continue.</p>","","","","","","","",""
"","1141","html-keyboard-response","48","2.0.0","258149","ph0b0mc379o","swan","m","<div style=""font-size:30pt;"">The moon produces light.</div>","Astronomy","F","T","Star","false","F","true",""
"","2072","html-keyboard-response","49","2.0.0","260722","ph0b0mc379o","swan","m","<div style=""font-size:30pt;"">The earth's rotation causes the seasons.</div>","Astronomy","F","F","Season","true","F","true",""
"","2358","html-keyboard-response","50","2.0.0","263581","ph0b0mc379o","swan","m","<div style=""font-size:30pt;"">A change in overall sunlight causes the seasons.</div>","Astronomy","T","T","Season","true","F","false",""
"","1768","html-keyboard-response","51","2.0.0","265851","ph0b0mc379o","swan","m","<div style=""font-size:30pt;"">The sun revolves around the moon.</div>","Astronomy","F","F","Solar system","true","F","true",""
"","1317","html-keyboard-response","52","2.0.0","267670","ph0b0mc379o","swan","m","<div style=""font-size:30pt;"">Phases of the moon are caused by clouds.</div>","Astronomy","F","F","Lunar phase","true","F","true",""
"","3105","html-keyboard-response","53","2.0.0","271277","ph0b0mc379o","swan","z","<div style=""font-size:30pt;"">Phases of the moon are caused by the moon's orbit.</div>","Astronomy","T","F","Lunar phase","false","T","true",""
"","1466","html-keyboard-response","54","2.0.0","273245","ph0b0mc379o","swan","z","<div style=""font-size:30pt;"">The earth revolves around the sun.</div>","Astronomy","T","F","Solar system","false","T","true",""
"","1934","html-keyboard-response","55","2.0.0","275682","ph0b0mc379o","swan","m","<div style=""font-size:30pt;"">Planets are more massive than stars.</div>","Astronomy","F","T","Planet","false","F","true",""
"","2237","html-keyboard-response","56","2.0.0","278421","ph0b0mc379o","swan","m","<div style=""font-size:30pt;"">The earth's distance from the sun causes the seasons.</div>","Astronomy","F","T","Season","false","F","true",""
"","1920","html-keyboard-response","57","2.0.0","280843","ph0b0mc379o","swan","z","<div style=""font-size:30pt;"">The moon revolves around the earth.</div>","Astronomy","T","T","Solar system","true","T","true",""
"","1464","html-keyboard-response","58","2.0.0","282809","ph0b0mc379o","swan","m","<div style=""font-size:30pt;"">The sun revolves around the earth.</div>","Astronomy","F","T","Solar system","false","F","true",""
"","1435","html-keyboard-response","59","2.0.0","284746","ph0b0mc379o","swan","z","<div style=""font-size:30pt;"">The sun produces light.</div>","Astronomy","T","T","Star","true","T","true",""
"","1388","html-keyboard-response","60","2.0.0","286637","ph0b0mc379o","swan","t","<div style=""font-size:30pt;"">Press T if you are paying attention. Do not press z or m.</div>","Astronomy","T3","T3","AttentionCheck","true","T3","true",""
"","2863","html-keyboard-response","61","2.0.0","290002","ph0b0mc379o","swan","z","<div style=""font-size:30pt;"">Planets are more massive than moons.</div>","Astronomy","T","T","Planet","true","T","true",""
"","1785","html-keyboard-response","62","2.0.0","292288","ph0b0mc379o","swan","z","<div style=""font-size:30pt;"">The sun produces sound.</div>","Astronomy","F","F","Star","true","T","false",""
"","1503","html-keyboard-response","63","2.0.0","294292","ph0b0mc379o","swan","z","<div style=""font-size:30pt;"">The earth's tilt causes the seasons.</div>","Astronomy","T","F","Season","false","T","true",""
"","2041","html-keyboard-response","64","2.0.0","296835","ph0b0mc379o","swan","z","<div style=""font-size:30pt;"">Stars are more massive than planets.</div>","Astronomy","T","F","Planet","false","T","true",""
"","3566","html-keyboard-response","65","2.0.0","300903","ph0b0mc379o","swan","m","<div style=""font-size:30pt;"">Phases of the moon are caused by changes in illumination.</div>","Astronomy","T","T","Lunar phase","true","F","false",""
"","2115","html-keyboard-response","66","2.0.0","303519","ph0b0mc379o","swan","z","<div style=""font-size:30pt;"">Phases of the moon are caused by the earth's shadow.</div>","Astronomy","F","T","Lunar phase","false","T","false",""
"","3421","html-keyboard-response","67","2.0.0","307442","ph0b0mc379o","swan","m","<div style=""font-size:30pt;"">Asteroids are more massive than planets.</div>","Astronomy","F","F","Planet","true","F","true",""
"","1214","html-keyboard-response","68","2.0.0","309158","ph0b0mc379o","swan","z","<div style=""font-size:30pt;"">The sun produces gravity.</div>","Astronomy","T","F","Star","false","T","true",""
"","948","html-keyboard-response","69","2.0.0","310609","ph0b0mc379o","swan","z","<p>The next 20 statements will be about <b>Evolution</b>. Press any key to continue.</p>","","","","","","","",""
"","1245","html-keyboard-response","70","2.0.0","311855","ph0b0mc379o","swan","z","<div style=""font-size:30pt;"">Evolution requires long periods of time.</div>","Evolution","F","T","Variation","false","T","false",""
"","1620","html-keyboard-response","71","2.0.0","313976","ph0b0mc379o","swan","z","<div style=""font-size:30pt;"">Most organisms are adapted to their environment.</div>","Evolution","T","T","Selection","true","T","true",""
"","2690","html-keyboard-response","72","2.0.0","317168","ph0b0mc379o","swan","m","<div style=""font-size:30pt;"">Most organisms have plenty to eat.</div>","Evolution","F","T","Selection","false","F","true",""
"","1268","html-keyboard-response","73","2.0.0","318939","ph0b0mc379o","swan","z","<div style=""font-size:30pt;"">Biological species evolve.</div>","Evolution","T","T","Adaptation","true","T","true",""
"","6042","html-keyboard-response","74","2.0.0","325483","ph0b0mc379o","swan","m","<div style=""font-size:30pt;"">Apes are more closely related to monkeys than humans.</div>","Evolution","F","T","Common ancestry","false","F","true",""
"","1761","html-keyboard-response","75","2.0.0","327747","ph0b0mc379o","swan","m","<div style=""font-size:30pt;"">Humans are descended from chimpanzees.</div>","Evolution","F","T","Phylogeny","false","F","true",""
"","1749","html-keyboard-response","76","2.0.0","329999","ph0b0mc379o","swan","m","<div style=""font-size:30pt;"">Evolution requires climate stability.</div>","Evolution","F","F","Variation","true","F","true",""
"","2550","html-keyboard-response","77","2.0.0","333051","ph0b0mc379o","swan","m","<div style=""font-size:30pt;"">Inanimate objects evolve.</div>","Evolution","F","F","Adaptation","true","F","true",""
"","1524","html-keyboard-response","78","2.0.0","335077","ph0b0mc379o","swan","z","<div style=""font-size:30pt;"">Humans are descended from sea-dwelling creatures.</div>","Evolution","T","F","Phylogeny","false","T","true",""
"","4811","html-keyboard-response","79","2.0.0","340390","ph0b0mc379o","swan","m","<div style=""font-size:30pt;"">Humans are descended from plants.</div>","Evolution","F","F","Phylogeny","true","F","true",""
"","1847","html-keyboard-response","80","2.0.0","342738","ph0b0mc379o","swan","z","<div style=""font-size:30pt;"">Humans are descended from tree-dwelling creatures.</div>","Evolution","T","T","Phylogeny","true","T","true",""
"","4183","html-keyboard-response","81","2.0.0","347424","ph0b0mc379o","swan","m","<div style=""font-size:30pt;"">Whales are more closely related to plants than fish.</div>","Evolution","F","F","Common ancestry","true","F","true",""
"","1967","html-keyboard-response","82","2.0.0","349893","ph0b0mc379o","swan","z","<div style=""font-size:30pt;"">Whales are more closely related to humans than fish.</div>","Evolution","T","F","Common ancestry","false","T","true",""
"","1710","html-keyboard-response","83","2.0.0","352105","ph0b0mc379o","swan","m","<div style=""font-size:30pt;"">Computer viruses evolve.</div>","Evolution","T","F","Adaptation","false","F","false",""
"","2357","html-keyboard-response","84","2.0.0","354965","ph0b0mc379o","swan","z","<div style=""font-size:30pt;"">Humans are more closely related to apes than monkeys.</div>","Evolution","T","T","Common ancestry","true","T","true",""
"","1778","html-keyboard-response","85","2.0.0","357245","ph0b0mc379o","swan","z","<div style=""font-size:30pt;"">Evolution requires differential survival.</div>","Evolution","T","T","Variation","true","T","true",""
"","1849","html-keyboard-response","86","2.0.0","359596","ph0b0mc379o","swan","m","<div style=""font-size:30pt;"">Individual organisms evolve.</div>","Evolution","F","T","Adaptation","false","F","true",""
"","1943","html-keyboard-response","87","2.0.0","362040","ph0b0mc379o","swan","m","<div style=""font-size:30pt;"">Most organisms live in temperate climates.</div>","Evolution","F","F","Selection","true","F","true",""
"","2172","html-keyboard-response","88","2.0.0","364713","ph0b0mc379o","swan","z","<div style=""font-size:30pt;"">Evolution requires within-species variation.</div>","Evolution","T","F","Variation","false","T","true",""
"","3359","html-keyboard-response","89","2.0.0","368574","ph0b0mc379o","swan","m","<div style=""font-size:30pt;"">Most organisms die before leaving offspring.</div>","Evolution","T","F","Selection","false","F","false",""
"","1482","html-keyboard-response","90","2.0.0","370558","ph0b0mc379o","swan","t","<div style=""font-size:30pt;"">Press T if you are paying attention. Do not press z or m.</div>","Evolution","T3","T3","AttentionCheck","true","T3","true",""
"","980","html-keyboard-response","91","2.0.0","372040","ph0b0mc379o","swan","z","<p>The next 20 statements will be about <b>Fractions</b>. Press any key to continue.</p>","","","","","","","",""
"","3321","html-keyboard-response","92","2.0.0","375362","ph0b0mc379o","swan","z","<div style=""font-size:30pt;"">12/13 is greater than 1/13.</div>","Fractions","T","T","Ordering","true","T","true",""
"","1782","html-keyboard-response","93","2.0.0","377645","ph0b0mc379o","swan","z","<div style=""font-size:30pt;"">All fractions are expressible as decimals.</div>","Fractions","F","T","Conversion","false","T","false",""
"","4046","html-keyboard-response","94","2.0.0","382193","ph0b0mc379o","swan","m","<div style=""font-size:30pt;"">8 divided by 1/2 is 4.</div>","Fractions","F","T","Division","false","F","true",""
"","1873","html-keyboard-response","95","2.0.0","384567","ph0b0mc379o","swan","m","<div style=""font-size:30pt;"">1/17 is greater than 16/17.</div>","Fractions","F","F","Ordering","true","F","true",""
"","2328","html-keyboard-response","96","2.0.0","387396","ph0b0mc379o","swan","m","<div style=""font-size:30pt;"">1/3 plus 1/3 is 1/3.</div>","Fractions","F","F","Addition","true","F","true",""
"","1964","html-keyboard-response","97","2.0.0","389861","ph0b0mc379o","swan","z","<div style=""font-size:30pt;"">All integers are expressible as fractions.</div>","Fractions","T","F","Conversion","false","T","true",""
"","3369","html-keyboard-response","98","2.0.0","393732","ph0b0mc379o","swan","z","<div style=""font-size:30pt;"">4 divided by 2/1 is 2.</div>","Fractions","T","T","Division","true","T","true",""
"","3144","html-keyboard-response","99","2.0.0","397378","ph0b0mc379o","swan","z","<div style=""font-size:30pt;"">1/10 plus 1/10 is 1/5.</div>","Fractions","T","F","Addition","false","T","true",""
"","2043","html-keyboard-response","100","2.0.0","399922","ph0b0mc379o","swan","z","<div style=""font-size:30pt;"">1/3 plus 1/3 is 2/3.</div>","Fractions","T","T","Addition","true","T","true",""
"","2101","html-keyboard-response","101","2.0.0","402526","ph0b0mc379o","swan","z","<div style=""font-size:30pt;"">There are numbers between 1/3 and 1/2.</div>","Fractions","T","F","Infinite density","false","T","true",""
"","1718","html-keyboard-response","102","2.0.0","404746","ph0b0mc379o","swan","m","<div style=""font-size:30pt;"">1/17 is greater than 1/9.</div>","Fractions","F","T","Ordering","false","F","true",""
"","2235","html-keyboard-response","103","2.0.0","407483","ph0b0mc379o","swan","z","<div style=""font-size:30pt;"">All fractions are expressible as integers.</div>","Fractions","F","F","Conversion","true","T","false",""
"","2265","html-keyboard-response","104","2.0.0","410250","ph0b0mc379o","swan","m","<div style=""font-size:30pt;"">8 divided by 2/1 is 3.</div>","Fractions","F","F","Division","true","F","true",""
"","5096","html-keyboard-response","105","2.0.0","415847","ph0b0mc379o","swan","m","<div style=""font-size:30pt;"">There are numbers between 10 and 10.</div>","Fractions","F","F","Infinite density","true","F","true",""
"","1302","html-keyboard-response","106","2.0.0","417651","ph0b0mc379o","swan","z","<div style=""font-size:30pt;"">There are numbers between 1 and 3.</div>","Fractions","T","T","Infinite density","true","T","true",""
"","4718","html-keyboard-response","107","2.0.0","422871","ph0b0mc379o","swan","m","<div style=""font-size:30pt;"">There are numbers between 1/10 and 10/100.</div>","Fractions","F","T","Infinite density","false","F","true",""
"","2101","html-keyboard-response","108","2.0.0","425474","ph0b0mc379o","swan","z","<div style=""font-size:30pt;"">4 divided by 1/2 is 8.</div>","Fractions","T","F","Division","false","T","true",""
"","3304","html-keyboard-response","109","2.0.0","429280","ph0b0mc379o","swan","m","<div style=""font-size:30pt;"">2/3 plus 2/4 is 2/7.</div>","Fractions","F","T","Addition","false","F","true",""
"","2193","html-keyboard-response","110","2.0.0","431975","ph0b0mc379o","swan","z","<div style=""font-size:30pt;"">All decimals are expressible as fractions.</div>","Fractions","T","T","Conversion","true","T","true",""
"","1506","html-keyboard-response","111","2.0.0","433983","ph0b0mc379o","swan","t","<div style=""font-size:30pt;"">Press T if you are paying attention. Do not press z or m.</div>","Fractions","T3","T3","AttentionCheck","true","T3","true",""
"","2242","html-keyboard-response","112","2.0.0","436726","ph0b0mc379o","swan","z","<div style=""font-size:30pt;"">1/13 is greater than 1/30.</div>","Fractions","T","F","Ordering","false","T","true",""
"","956","html-keyboard-response","113","2.0.0","438183","ph0b0mc379o","swan","m","<p>The next 20 statements will be about <b>Waves</b>. Press any key to continue.</p>","","","","","","","",""
"","2238","html-keyboard-response","114","2.0.0","440422","ph0b0mc379o","swan","m","<div style=""font-size:30pt;"">Foam reflects sound.</div>","Waves","F","F","Reflection","true","F","true",""
"","2323","html-keyboard-response","115","2.0.0","443247","ph0b0mc379o","swan","z","<div style=""font-size:30pt;"">Sounds can be near or far.</div>","Waves","F","T","Sound","false","T","false",""
"","1702","html-keyboard-response","116","2.0.0","445450","ph0b0mc379o","swan","z","<div style=""font-size:30pt;"">Red objects reflect red light.</div>","Waves","T","T","Color","true","T","true",""
"","1050","html-keyboard-response","117","2.0.0","447003","ph0b0mc379o","swan","m","<div style=""font-size:30pt;"">Red objects absorb red light.</div>","Waves","F","T","Color","false","F","true",""
"","1081","html-keyboard-response","118","2.0.0","448586","ph0b0mc379o","swan","z","<div style=""font-size:30pt;"">Sound travels through air.</div>","Waves","T","T","Propagation","true","T","true",""
"","2791","html-keyboard-response","119","2.0.0","451879","ph0b0mc379o","swan","z","<div style=""font-size:30pt;"">Red objects absorb blue light.</div>","Waves","T","F","Color","false","T","true",""
"","1521","html-keyboard-response","120","2.0.0","453902","ph0b0mc379o","swan","z","<div style=""font-size:30pt;"">Mirrors reflect light.</div>","Waves","T","T","Reflection","true","T","true",""
"","1245","html-keyboard-response","121","2.0.0","455649","ph0b0mc379o","swan","m","<div style=""font-size:30pt;"">Sound travels through a vacuum.</div>","Waves","F","T","Propagation","false","F","true",""
"","1700","html-keyboard-response","122","2.0.0","457851","ph0b0mc379o","swan","m","<div style=""font-size:30pt;"">Shadows contain all colors of light.</div>","Waves","F","F","Light","true","F","true",""
"","1389","html-keyboard-response","123","2.0.0","459742","ph0b0mc379o","swan","t","<div style=""font-size:30pt;"">Press T if you are paying attention. Do not press z or m.</div>","Waves","T3","T3","AttentionCheck","true","T3","true",""
"","2122","html-keyboard-response","124","2.0.0","462366","ph0b0mc379o","swan","z","<div style=""font-size:30pt;"">Mirrors reflect sound.</div>","Waves","T","F","Reflection","false","T","true",""
"","2121","html-keyboard-response","125","2.0.0","464988","ph0b0mc379o","swan","z","<div style=""font-size:30pt;"">Sound travels through foam.</div>","Waves","F","F","Propagation","true","T","false",""
"","1364","html-keyboard-response","126","2.0.0","466854","ph0b0mc379o","swan","z","<div style=""font-size:30pt;"">White light contains all colors of light.</div>","Waves","T","F","Light","false","T","true",""
"","1461","html-keyboard-response","127","2.0.0","468818","ph0b0mc379o","swan","m","<div style=""font-size:30pt;"">Red objects reflect blue light.</div>","Waves","F","F","Color","true","F","true",""
"","1155","html-keyboard-response","128","2.0.0","470475","ph0b0mc379o","swan","z","<div style=""font-size:30pt;"">Sounds can be loud or quiet.</div>","Waves","T","T","Sound","true","T","true",""
"","953","html-keyboard-response","129","2.0.0","471930","ph0b0mc379o","swan","m","<div style=""font-size:30pt;"">Sound travels through metal.</div>","Waves","T","F","Propagation","false","F","false",""
"","5501","html-keyboard-response","130","2.0.0","477933","ph0b0mc379o","swan","m","<div style=""font-size:30pt;"">Prisms reflect light.</div>","Waves","F","T","Reflection","false","F","true",""
"","1541","html-keyboard-response","131","2.0.0","479976","ph0b0mc379o","swan","z","<div style=""font-size:30pt;"">Sounds can be direct or reflected.</div>","Waves","T","F","Sound","false","T","true",""
"","3535","html-keyboard-response","132","2.0.0","484014","ph0b0mc379o","swan","m","<div style=""font-size:30pt;"">Black objects reflect all colors of light.</div>","Waves","F","T","Light","false","F","true",""
"","1312","html-keyboard-response","133","2.0.0","485828","ph0b0mc379o","swan","m","<div style=""font-size:30pt;"">Sounds can be dead or alive.</div>","Waves","F","F","Sound","true","F","true",""
"","3192","html-keyboard-response","134","2.0.0","489521","ph0b0mc379o","swan","z","<div style=""font-size:30pt;"">Rainbows contain all colors of light.</div>","Waves","T","T","Light","true","T","true",""
"","910","html-keyboard-response","135","2.0.0","490933","ph0b0mc379o","swan","m","<p>The next 20 statements will be about <b>Germs</b>. Press any key to continue.</p>","","","","","","","",""
"","1298","html-keyboard-response","136","2.0.0","492231","ph0b0mc379o","swan","m","<div style=""font-size:30pt;"">Germs have an odor.</div>","Germs","F","T","Microbe","false","F","true",""
"","1261","html-keyboard-response","137","2.0.0","493995","ph0b0mc379o","swan","z","<div style=""font-size:30pt;"">Dish sponges contain germs.</div>","Germs","T","F","Contamination","false","T","true",""
"","1120","html-keyboard-response","138","2.0.0","495616","ph0b0mc379o","swan","m","<div style=""font-size:30pt;"">Kindness kills germs.</div>","Germs","F","F","Sterilization","true","F","true",""
"","1545","html-keyboard-response","139","2.0.0","497662","ph0b0mc379o","swan","z","<div style=""font-size:30pt;"">Being depressed can make a person sick.</div>","Germs","T","F","Contagion","false","T","true",""
"","970","html-keyboard-response","140","2.0.0","499134","ph0b0mc379o","swan","z","<div style=""font-size:30pt;"">Being sneezed on can make a person sick.</div>","Germs","T","T","Contagion","true","T","true",""
"","1139","html-keyboard-response","141","2.0.0","500775","ph0b0mc379o","swan","m","<div style=""font-size:30pt;"">Being happy can make a person sick.</div>","Germs","F","F","Contagion","true","F","true",""
"","1454","html-keyboard-response","142","2.0.0","502731","ph0b0mc379o","swan","t","<div style=""font-size:30pt;"">Press T if you are paying attention. Do not press z or m.</div>","Germs","T3","T3","AttentionCheck","true","T3","true",""
"","918","html-keyboard-response","143","2.0.0","504151","ph0b0mc379o","swan","z","<div style=""font-size:30pt;"">Alcohol kills germs.</div>","Germs","T","T","Sterilization","true","T","true",""
"","769","html-keyboard-response","144","2.0.0","505421","ph0b0mc379o","swan","m","<div style=""font-size:30pt;"">Germs have feelings.</div>","Germs","F","F","Microbe","true","F","true",""
"","1220","html-keyboard-response","145","2.0.0","507144","ph0b0mc379o","swan","m","<div style=""font-size:30pt;"">Water kills germs.</div>","Germs","F","T","Sterilization","false","F","true",""
"","917","html-keyboard-response","146","2.0.0","508562","ph0b0mc379o","swan","z","<div style=""font-size:30pt;"">Rotting meat contains germs.</div>","Germs","T","T","Contamination","true","T","true",""
"","2200","html-keyboard-response","147","2.0.0","511264","ph0b0mc379o","swan","m","<div style=""font-size:30pt;"">Germs enter the body through the skin.</div>","Germs","F","T","Infection","false","F","true",""
"","1190","html-keyboard-response","148","2.0.0","512956","ph0b0mc379o","swan","m","<div style=""font-size:30pt;"">Urine contains germs.</div>","Germs","F","T","Contamination","false","F","true",""
"","1268","html-keyboard-response","149","2.0.0","514726","ph0b0mc379o","swan","z","<div style=""font-size:30pt;"">Heat kills germs.</div>","Germs","T","F","Sterilization","false","T","true",""
"","2046","html-keyboard-response","150","2.0.0","517274","ph0b0mc379o","swan","z","<div style=""font-size:30pt;"">Germs enter the body through cuts.</div>","Germs","T","T","Infection","true","T","true",""
"","1197","html-keyboard-response","151","2.0.0","518972","ph0b0mc379o","swan","m","<div style=""font-size:30pt;"">Sunshine contains germs.</div>","Germs","F","F","Contamination","true","F","true",""
"","1505","html-keyboard-response","152","2.0.0","520979","ph0b0mc379o","swan","z","<div style=""font-size:30pt;"">Germs have DNA.</div>","Germs","T","F","Microbe","false","T","true",""
"","888","html-keyboard-response","153","2.0.0","522369","ph0b0mc379o","swan","z","<div style=""font-size:30pt;"">Germs have a shape.</div>","Germs","T","T","Microbe","true","T","true",""
"","1552","html-keyboard-response","154","2.0.0","524424","ph0b0mc379o","swan","m","<div style=""font-size:30pt;"">Germs enter the body through the hair.</div>","Germs","F","F","Infection","true","F","true",""
"","1243","html-keyboard-response","155","2.0.0","526169","ph0b0mc379o","swan","z","<div style=""font-size:30pt;"">Germs enter the body through the eyes.</div>","Germs","T","F","Infection","false","T","true",""
"","1701","html-keyboard-response","156","2.0.0","528372","ph0b0mc379o","swan","m","<div style=""font-size:30pt;"">Being cold can make a person sick.</div>","Germs","F","T","Contagion","false","F","true",""
"","2406","html-keyboard-response","157","2.0.0","531280","ph0b0mc379o","swan","m","
      <p>Thank you for completing this portion of the 
      experiment. We now have a few  questions for you.</p>
      <p>Press any key to proceed, and click submit once you are 
      done with the questions. Thanks! </p>
      ","","","","","","","",""
"","4373","survey-multi-choice","158","null","535655","ph0b0mc379o","swan","{""grade"":""4th Year"",""gender"":""Female""}","","","","","","","","","[0,1]"
"","15995","survey","159","4.0.0","551690","ph0b0mc379o","swan","{""age"":22,""major"":""Cognitive and Behavioral Neuroscience"",""experiment_topic"":""I don't know"",""technical_difficulties"":""No""}","","","","","","","","",""
