"success","rt","trial_type","trial_index","plugin_version","time_elapsed","random_id","participant_id","response","stimulus","category","correct_response","naive_theory","concept","is_consistent","response_tf","correct","question_order"
"true","2089","fullscreen","0","null","3093","pn8jq73pnhl","penguin","","","","","","","","","",""
"","2501","survey-text","1","2.0.0","5598","pn8jq73pnhl","penguin","{""participant_id"":""penguin""}","","","","","","","","",""
"","28574","html-keyboard-response","2","2.0.0","34175","pn8jq73pnhl","penguin","m","<p>Welcome to the experiment.<br><br>You will see 140 statements about various topics.<br><br>Please read the statements and respond with whether you think they are <b>true (Z key)</b> or <b>false (M key)</b> as quickly as possible!<br><br>Press any key to begin.</p>","","","","","","","",""
"","3084","html-keyboard-response","3","2.0.0","37260","pn8jq73pnhl","penguin","m","<p>The next 20 statements will be about <b>Astronomy</b>. Press any key to continue.</p>","","","","","","","",""
"","4928","html-keyboard-response","4","2.0.0","42190","pn8jq73pnhl","penguin","t","<div style=""font-size:30pt;"">Press T if you are paying attention. Do not press z or m.</div>","Astronomy","T3","T3","AttentionCheck","true","T3","true",""
"","6904","html-keyboard-response","5","2.0.0","49596","pn8jq73pnhl","penguin","m","<div style=""font-size:30pt;"">Planets are more massive than moons.</div>","Astronomy","T","T","Planet","true","F","false",""
"","14210","html-keyboard-response","6","2.0.0","64308","pn8jq73pnhl","penguin","z","<div style=""font-size:30pt;"">Phases of the moon are caused by the moon's orbit.</div>","Astronomy","T","F","Lunar phase","false","T","true",""
"","1679","html-keyboard-response","7","2.0.0","66490","pn8jq73pnhl","penguin","m","<div style=""font-size:30pt;"">Phases of the moon are caused by clouds.</div>","Astronomy","F","F","Lunar phase","true","F","true",""
"","3549","html-keyboard-response","8","2.0.0","70542","pn8jq73pnhl","penguin","m","<div style=""font-size:30pt;"">The sun revolves around the earth.</div>","Astronomy","F","T","Solar system","false","F","true",""
"","1583","html-keyboard-response","9","2.0.0","72628","pn8jq73pnhl","penguin","z","<div style=""font-size:30pt;"">The earth revolves around the sun.</div>","Astronomy","T","F","Solar system","false","T","true",""
"","21397","html-keyboard-response","10","2.0.0","94528","pn8jq73pnhl","penguin","z","<div style=""font-size:30pt;"">Phases of the moon are caused by the earth's shadow.</div>","Astronomy","F","T","Lunar phase","false","T","false",""
"","2090","html-keyboard-response","11","2.0.0","97122","pn8jq73pnhl","penguin","m","<div style=""font-size:30pt;"">The moon produces light.</div>","Astronomy","F","T","Star","false","F","true",""
"","2532","html-keyboard-response","12","2.0.0","100157","pn8jq73pnhl","penguin","m","<div style=""font-size:30pt;"">Stars are more massive than planets.</div>","Astronomy","T","F","Planet","false","F","false",""
"","1687","html-keyboard-response","13","2.0.0","102346","pn8jq73pnhl","penguin","m","<div style=""font-size:30pt;"">Planets are more massive than stars.</div>","Astronomy","F","T","Planet","false","F","true",""
"","7426","html-keyboard-response","14","2.0.0","110274","pn8jq73pnhl","penguin","z","<div style=""font-size:30pt;"">The earth's tilt causes the seasons.</div>","Astronomy","T","F","Season","false","T","true",""
"","6958","html-keyboard-response","15","2.0.0","117735","pn8jq73pnhl","penguin","m","<div style=""font-size:30pt;"">A change in overall sunlight causes the seasons.</div>","Astronomy","T","T","Season","true","F","false",""
"","1909","html-keyboard-response","16","2.0.0","120147","pn8jq73pnhl","penguin","m","<div style=""font-size:30pt;"">The sun produces gravity.</div>","Astronomy","T","F","Star","false","F","false",""
"","2845","html-keyboard-response","17","2.0.0","123494","pn8jq73pnhl","penguin","z","<div style=""font-size:30pt;"">The sun produces light.</div>","Astronomy","T","T","Star","true","T","true",""
"","11667","html-keyboard-response","18","2.0.0","135664","pn8jq73pnhl","penguin","z","<div style=""font-size:30pt;"">Phases of the moon are caused by changes in illumination.</div>","Astronomy","T","T","Lunar phase","true","T","true",""
"","13441","html-keyboard-response","19","2.0.0","149607","pn8jq73pnhl","penguin","z","<div style=""font-size:30pt;"">The earth's rotation causes the seasons.</div>","Astronomy","F","F","Season","true","T","false",""
"","1081","html-keyboard-response","20","2.0.0","151189","pn8jq73pnhl","penguin","m","<div style=""font-size:30pt;"">The sun produces sound.</div>","Astronomy","F","F","Star","true","F","true",""
"","5987","html-keyboard-response","21","2.0.0","157679","pn8jq73pnhl","penguin","m","<div style=""font-size:30pt;"">The moon revolves around the earth.</div>","Astronomy","T","T","Solar system","true","F","false",""
"","3844","html-keyboard-response","22","2.0.0","162031","pn8jq73pnhl","penguin","m","<div style=""font-size:30pt;"">Asteroids are more massive than planets.</div>","Astronomy","F","F","Planet","true","F","true",""
"","1969","html-keyboard-response","23","2.0.0","164498","pn8jq73pnhl","penguin","m","<div style=""font-size:30pt;"">The earth's distance from the sun causes the seasons.</div>","Astronomy","F","T","Season","false","F","true",""
"","6880","html-keyboard-response","24","2.0.0","171866","pn8jq73pnhl","penguin","m","<div style=""font-size:30pt;"">The sun revolves around the moon.</div>","Astronomy","F","F","Solar system","true","F","true",""
"","2788","html-keyboard-response","25","2.0.0","175154","pn8jq73pnhl","penguin","m","<p>The next 20 statements will be about <b>Waves</b>. Press any key to continue.</p>","","","","","","","",""
"","11700","html-keyboard-response","26","2.0.0","186845","pn8jq73pnhl","penguin","m","<div style=""font-size:30pt;"">Black objects reflect all colors of light.</div>","Waves","F","T","Light","false","F","true",""
"","4699","html-keyboard-response","27","2.0.0","192044","pn8jq73pnhl","penguin","t","<div style=""font-size:30pt;"">Press T if you are paying attention. Do not press z or m.</div>","Waves","T3","T3","AttentionCheck","true","T3","true",""
"","8436","html-keyboard-response","28","2.0.0","200980","pn8jq73pnhl","penguin","z","<div style=""font-size:30pt;"">Sound travels through a vacuum.</div>","Waves","F","T","Propagation","false","T","false",""
"","1969","html-keyboard-response","29","2.0.0","203451","pn8jq73pnhl","penguin","m","<div style=""font-size:30pt;"">Sounds can be dead or alive.</div>","Waves","F","F","Sound","true","F","true",""
"","29332","html-keyboard-response","30","2.0.0","233281","pn8jq73pnhl","penguin","z","<div style=""font-size:30pt;"">Red objects absorb blue light.</div>","Waves","T","F","Color","false","T","true",""
"","5405","html-keyboard-response","31","2.0.0","239188","pn8jq73pnhl","penguin","z","<div style=""font-size:30pt;"">Rainbows contain all colors of light.</div>","Waves","T","T","Light","true","T","true",""
"","1565","html-keyboard-response","32","2.0.0","241254","pn8jq73pnhl","penguin","m","<div style=""font-size:30pt;"">Mirrors reflect sound.</div>","Waves","T","F","Reflection","false","F","false",""
"","1987","html-keyboard-response","33","2.0.0","243743","pn8jq73pnhl","penguin","m","<div style=""font-size:30pt;"">Red objects reflect red light.</div>","Waves","T","T","Color","true","F","false",""
"","3581","html-keyboard-response","34","2.0.0","247827","pn8jq73pnhl","penguin","m","<div style=""font-size:30pt;"">Red objects reflect blue light.</div>","Waves","F","F","Color","true","F","true",""
"","1631","html-keyboard-response","35","2.0.0","249959","pn8jq73pnhl","penguin","m","<div style=""font-size:30pt;"">Sound travels through metal.</div>","Waves","T","F","Propagation","false","F","false",""
"","1215","html-keyboard-response","36","2.0.0","251677","pn8jq73pnhl","penguin","z","<div style=""font-size:30pt;"">Sound travels through air.</div>","Waves","T","T","Propagation","true","T","true",""
"","3067","html-keyboard-response","37","2.0.0","255245","pn8jq73pnhl","penguin","z","<div style=""font-size:30pt;"">Sounds can be near or far.</div>","Waves","F","T","Sound","false","T","false",""
"","4160","html-keyboard-response","38","2.0.0","259907","pn8jq73pnhl","penguin","m","<div style=""font-size:30pt;"">Shadows contain all colors of light.</div>","Waves","F","F","Light","true","F","true",""
"","5291","html-keyboard-response","39","2.0.0","265700","pn8jq73pnhl","penguin","z","<div style=""font-size:30pt;"">White light contains all colors of light.</div>","Waves","T","F","Light","false","T","true",""
"","3302","html-keyboard-response","40","2.0.0","269505","pn8jq73pnhl","penguin","z","<div style=""font-size:30pt;"">Prisms reflect light.</div>","Waves","F","T","Reflection","false","T","false",""
"","4341","html-keyboard-response","41","2.0.0","274348","pn8jq73pnhl","penguin","z","<div style=""font-size:30pt;"">Sound travels through foam.</div>","Waves","F","F","Propagation","true","T","false",""
"","1959","html-keyboard-response","42","2.0.0","276811","pn8jq73pnhl","penguin","m","<div style=""font-size:30pt;"">Red objects absorb red light.</div>","Waves","F","T","Color","false","F","true",""
"","9256","html-keyboard-response","43","2.0.0","286572","pn8jq73pnhl","penguin","m","<div style=""font-size:30pt;"">Foam reflects sound.</div>","Waves","F","F","Reflection","true","F","true",""
"","8290","html-keyboard-response","44","2.0.0","295365","pn8jq73pnhl","penguin","z","<div style=""font-size:30pt;"">Sounds can be direct or reflected.</div>","Waves","T","F","Sound","false","T","true",""
"","1955","html-keyboard-response","45","2.0.0","297822","pn8jq73pnhl","penguin","z","<div style=""font-size:30pt;"">Mirrors reflect light.</div>","Waves","T","T","Reflection","true","T","true",""
"","1318","html-keyboard-response","46","2.0.0","299642","pn8jq73pnhl","penguin","z","<div style=""font-size:30pt;"">Sounds can be loud or quiet.</div>","Waves","T","T","Sound","true","T","true",""
"","1702","html-keyboard-response","47","2.0.0","301848","pn8jq73pnhl","penguin"," ","<p>The next 20 statements will be about <b>Mechanics</b>. Press any key to continue.</p>","","","","","","","",""
"","1996","html-keyboard-response","48","2.0.0","303845","pn8jq73pnhl","penguin","z","<div style=""font-size:30pt;"">Forces can be strong or weak.</div>","Mechanics","T","T","Force","true","T","true",""
"","3124","html-keyboard-response","49","2.0.0","307473","pn8jq73pnhl","penguin","m","<div style=""font-size:30pt;"">Bright objects fall through air faster than dark objects.</div>","Mechanics","F","F","Gravity","true","F","true",""
"","9345","html-keyboard-response","50","2.0.0","317321","pn8jq73pnhl","penguin","z","<div style=""font-size:30pt;"">Constant acceleration requires constant force.</div>","Mechanics","T","T","Acceleration","true","T","true",""
"","4933","html-keyboard-response","51","2.0.0","322756","pn8jq73pnhl","penguin","m","<div style=""font-size:30pt;"">Heavy balls fall through air faster than light balls.</div>","Mechanics","F","T","Gravity","false","F","true",""
"","7920","html-keyboard-response","52","2.0.0","331177","pn8jq73pnhl","penguin","z","<div style=""font-size:30pt;"">Constant motion requires constant force.</div>","Mechanics","F","T","Acceleration","false","T","false",""
"","2369","html-keyboard-response","53","2.0.0","334050","pn8jq73pnhl","penguin","z","<div style=""font-size:30pt;"">Forces can be balanced or unbalanced.</div>","Mechanics","T","F","Force","false","T","true",""
"","1764","html-keyboard-response","54","2.0.0","336316","pn8jq73pnhl","penguin","t","<div style=""font-size:30pt;"">Press T if you are paying attention. Do not press z or m.</div>","Mechanics","T3","T3","AttentionCheck","true","T3","true",""
"","5734","html-keyboard-response","55","2.0.0","342553","pn8jq73pnhl","penguin","z","<div style=""font-size:30pt;"">Color can be transferred from one object to another.</div>","Mechanics","F","F","Momentum","true","T","false",""
"","5968","html-keyboard-response","56","2.0.0","349022","pn8jq73pnhl","penguin","m","<div style=""font-size:30pt;"">Anvils fall through air faster than feathers.</div>","Mechanics","T","T","Gravity","true","F","false",""
"","8003","html-keyboard-response","57","2.0.0","357528","pn8jq73pnhl","penguin","m","<div style=""font-size:30pt;"">A moving bullet loses height.</div>","Mechanics","T","F","Velocity","false","F","false",""
"","4596","html-keyboard-response","58","2.0.0","362628","pn8jq73pnhl","penguin","m","<div style=""font-size:30pt;"">A moving bullet loses weight.</div>","Mechanics","F","F","Velocity","true","F","true",""
"","1327","html-keyboard-response","59","2.0.0","364458","pn8jq73pnhl","penguin","m","<div style=""font-size:30pt;"">A moving bullet loses speed.</div>","Mechanics","T","T","Velocity","true","F","false",""
"","1364","html-keyboard-response","60","2.0.0","366325","pn8jq73pnhl","penguin","m","<div style=""font-size:30pt;"">Forces can be male or female.</div>","Mechanics","F","F","Force","true","F","true",""
"","13153","html-keyboard-response","61","2.0.0","379979","pn8jq73pnhl","penguin","m","<div style=""font-size:30pt;"">Pointy objects fall through air faster than flat objects.</div>","Mechanics","T","F","Gravity","false","F","false",""
"","6146","html-keyboard-response","62","2.0.0","386627","pn8jq73pnhl","penguin","z","<div style=""font-size:30pt;"">Energy can be transferred from one object to another.</div>","Mechanics","T","F","Momentum","false","T","true",""
"","2453","html-keyboard-response","63","2.0.0","389583","pn8jq73pnhl","penguin","m","<div style=""font-size:30pt;"">A moving bullet loses force.</div>","Mechanics","F","T","Velocity","false","F","true",""
"","13245","html-keyboard-response","64","2.0.0","403329","pn8jq73pnhl","penguin","m","<div style=""font-size:30pt;"">Constant force can yield constant rest.</div>","Mechanics","T","F","Acceleration","false","F","false",""
"","5618","html-keyboard-response","65","2.0.0","409449","pn8jq73pnhl","penguin","z","<div style=""font-size:30pt;"">Forces can be transferred from one object to another.</div>","Mechanics","F","T","Momentum","false","T","false",""
"","2252","html-keyboard-response","66","2.0.0","412203","pn8jq73pnhl","penguin","z","<div style=""font-size:30pt;"">Constant speed requires constant acceleration.</div>","Mechanics","F","F","Acceleration","true","T","false",""
"","6808","html-keyboard-response","67","2.0.0","419513","pn8jq73pnhl","penguin","z","<div style=""font-size:30pt;"">Momentum can be transferred from one object to another.</div>","Mechanics","T","T","Momentum","true","T","true",""
"","3135","html-keyboard-response","68","2.0.0","423150","pn8jq73pnhl","penguin","m","<div style=""font-size:30pt;"">Forces can be straight or curved.</div>","Mechanics","F","T","Force","false","F","true",""
"","1189","html-keyboard-response","69","2.0.0","424845","pn8jq73pnhl","penguin","m","<p>The next 20 statements will be about <b>Fractions</b>. Press any key to continue.</p>","","","","","","","",""
"","3541","html-keyboard-response","70","2.0.0","428387","pn8jq73pnhl","penguin","z","<div style=""font-size:30pt;"">4 divided by 1/2 is 8.</div>","Fractions","T","F","Division","false","T","true",""
"","2466","html-keyboard-response","71","2.0.0","431355","pn8jq73pnhl","penguin","m","<div style=""font-size:30pt;"">8 divided by 2/1 is 3.</div>","Fractions","F","F","Division","true","F","true",""
"","2608","html-keyboard-response","72","2.0.0","434465","pn8jq73pnhl","penguin","m","<div style=""font-size:30pt;"">1/17 is greater than 1/9.</div>","Fractions","F","T","Ordering","false","F","true",""
"","2986","html-keyboard-response","73","2.0.0","437953","pn8jq73pnhl","penguin","z","<div style=""font-size:30pt;"">All fractions are expressible as decimals.</div>","Fractions","F","T","Conversion","false","T","false",""
"","2640","html-keyboard-response","74","2.0.0","441094","pn8jq73pnhl","penguin","z","<div style=""font-size:30pt;"">There are numbers between 1/3 and 1/2.</div>","Fractions","T","F","Infinite density","false","T","true",""
"","3439","html-keyboard-response","75","2.0.0","445035","pn8jq73pnhl","penguin","m","<div style=""font-size:30pt;"">8 divided by 1/2 is 4.</div>","Fractions","F","T","Division","false","F","true",""
"","2164","html-keyboard-response","76","2.0.0","447700","pn8jq73pnhl","penguin","z","<div style=""font-size:30pt;"">1/3 plus 1/3 is 2/3.</div>","Fractions","T","T","Addition","true","T","true",""
"","5948","html-keyboard-response","77","2.0.0","454155","pn8jq73pnhl","penguin","m","<div style=""font-size:30pt;"">There are numbers between 1/10 and 10/100.</div>","Fractions","F","T","Infinite density","false","F","true",""
"","2674","html-keyboard-response","78","2.0.0","457332","pn8jq73pnhl","penguin","m","<div style=""font-size:30pt;"">There are numbers between 10 and 10.</div>","Fractions","F","F","Infinite density","true","F","true",""
"","2865","html-keyboard-response","79","2.0.0","460699","pn8jq73pnhl","penguin","m","<div style=""font-size:30pt;"">1/3 plus 1/3 is 1/3.</div>","Fractions","F","F","Addition","true","F","true",""
"","2089","html-keyboard-response","80","2.0.0","463290","pn8jq73pnhl","penguin","z","<div style=""font-size:30pt;"">There are numbers between 1 and 3.</div>","Fractions","T","T","Infinite density","true","T","true",""
"","2969","html-keyboard-response","81","2.0.0","466761","pn8jq73pnhl","penguin","m","<div style=""font-size:30pt;"">1/17 is greater than 16/17.</div>","Fractions","F","F","Ordering","true","F","true",""
"","2135","html-keyboard-response","82","2.0.0","469398","pn8jq73pnhl","penguin","z","<div style=""font-size:30pt;"">1/10 plus 1/10 is 1/5.</div>","Fractions","T","F","Addition","false","T","true",""
"","3937","html-keyboard-response","83","2.0.0","473837","pn8jq73pnhl","penguin","z","<div style=""font-size:30pt;"">12/13 is greater than 1/13.</div>","Fractions","T","T","Ordering","true","T","true",""
"","5686","html-keyboard-response","84","2.0.0","480024","pn8jq73pnhl","penguin","z","<div style=""font-size:30pt;"">1/13 is greater than 1/30.</div>","Fractions","T","F","Ordering","false","T","true",""
"","5404","html-keyboard-response","85","2.0.0","485930","pn8jq73pnhl","penguin","m","<div style=""font-size:30pt;"">All fractions are expressible as integers.</div>","Fractions","F","F","Conversion","true","F","true",""
"","4818","html-keyboard-response","86","2.0.0","491251","pn8jq73pnhl","penguin","m","<div style=""font-size:30pt;"">2/3 plus 2/4 is 2/7.</div>","Fractions","F","T","Addition","false","F","true",""
"","1445","html-keyboard-response","87","2.0.0","493197","pn8jq73pnhl","penguin","t","<div style=""font-size:30pt;"">Press T if you are paying attention. Do not press z or m.</div>","Fractions","T3","T3","AttentionCheck","true","T3","true",""
"","2789","html-keyboard-response","88","2.0.0","496488","pn8jq73pnhl","penguin","z","<div style=""font-size:30pt;"">All decimals are expressible as fractions.</div>","Fractions","T","T","Conversion","true","T","true",""
"","2450","html-keyboard-response","89","2.0.0","499440","pn8jq73pnhl","penguin","m","<div style=""font-size:30pt;"">All integers are expressible as fractions.</div>","Fractions","T","F","Conversion","false","F","false",""
"","5063","html-keyboard-response","90","2.0.0","505005","pn8jq73pnhl","penguin","z","<div style=""font-size:30pt;"">4 divided by 2/1 is 2.</div>","Fractions","T","T","Division","true","T","true",""
"","1176","html-keyboard-response","91","2.0.0","506682","pn8jq73pnhl","penguin"," ","<p>The next 20 statements will be about <b>Germs</b>. Press any key to continue.</p>","","","","","","","",""
"","9032","html-keyboard-response","92","2.0.0","515715","pn8jq73pnhl","penguin","z","<div style=""font-size:30pt;"">Dish sponges contain germs.</div>","Germs","T","F","Contamination","false","T","true",""
"","9953","html-keyboard-response","93","2.0.0","526170","pn8jq73pnhl","penguin","z","<div style=""font-size:30pt;"">Being depressed can make a person sick.</div>","Germs","T","F","Contagion","false","T","true",""
"","2100","html-keyboard-response","94","2.0.0","528772","pn8jq73pnhl","penguin","z","<div style=""font-size:30pt;"">Germs enter the body through cuts.</div>","Germs","T","T","Infection","true","T","true",""
"","1590","html-keyboard-response","95","2.0.0","530864","pn8jq73pnhl","penguin","m","<div style=""font-size:30pt;"">Water kills germs.</div>","Germs","F","T","Sterilization","false","F","true",""
"","3923","html-keyboard-response","96","2.0.0","535288","pn8jq73pnhl","penguin","m","<div style=""font-size:30pt;"">Germs enter the body through the skin.</div>","Germs","F","T","Infection","false","F","true",""
"","3067","html-keyboard-response","97","2.0.0","538857","pn8jq73pnhl","penguin","m","<div style=""font-size:30pt;"">Kindness kills germs.</div>","Germs","F","F","Sterilization","true","F","true",""
"","2883","html-keyboard-response","98","2.0.0","542241","pn8jq73pnhl","penguin","m","<div style=""font-size:30pt;"">Sunshine contains germs.</div>","Germs","F","F","Contamination","true","F","true",""
"","1504","html-keyboard-response","99","2.0.0","544248","pn8jq73pnhl","penguin","m","<div style=""font-size:30pt;"">Germs have a shape.</div>","Germs","T","T","Microbe","true","F","false",""
"","1806","html-keyboard-response","100","2.0.0","546556","pn8jq73pnhl","penguin","m","<div style=""font-size:30pt;"">Germs have feelings.</div>","Germs","F","F","Microbe","true","F","true",""
"","1600","html-keyboard-response","101","2.0.0","548658","pn8jq73pnhl","penguin","z","<div style=""font-size:30pt;"">Alcohol kills germs.</div>","Germs","T","T","Sterilization","true","T","true",""
"","1550","html-keyboard-response","102","2.0.0","550709","pn8jq73pnhl","penguin","t","<div style=""font-size:30pt;"">Press T if you are paying attention. Do not press z or m.</div>","Germs","T3","T3","AttentionCheck","true","T3","true",""
"","3199","html-keyboard-response","103","2.0.0","554411","pn8jq73pnhl","penguin","m","<div style=""font-size:30pt;"">Germs enter the body through the hair.</div>","Germs","F","F","Infection","true","F","true",""
"","2084","html-keyboard-response","104","2.0.0","556997","pn8jq73pnhl","penguin","m","<div style=""font-size:30pt;"">Being happy can make a person sick.</div>","Germs","F","F","Contagion","true","F","true",""
"","2224","html-keyboard-response","105","2.0.0","559726","pn8jq73pnhl","penguin","z","<div style=""font-size:30pt;"">Urine contains germs.</div>","Germs","F","T","Contamination","false","T","false",""
"","1250","html-keyboard-response","106","2.0.0","561478","pn8jq73pnhl","penguin","z","<div style=""font-size:30pt;"">Heat kills germs.</div>","Germs","T","F","Sterilization","false","T","true",""
"","1301","html-keyboard-response","107","2.0.0","563280","pn8jq73pnhl","penguin","z","<div style=""font-size:30pt;"">Rotting meat contains germs.</div>","Germs","T","T","Contamination","true","T","true",""
"","3707","html-keyboard-response","108","2.0.0","567490","pn8jq73pnhl","penguin","z","<div style=""font-size:30pt;"">Being sneezed on can make a person sick.</div>","Germs","T","T","Contagion","true","T","true",""
"","2582","html-keyboard-response","109","2.0.0","570574","pn8jq73pnhl","penguin","m","<div style=""font-size:30pt;"">Germs have an odor.</div>","Germs","F","T","Microbe","false","F","true",""
"","1779","html-keyboard-response","110","2.0.0","572855","pn8jq73pnhl","penguin","z","<div style=""font-size:30pt;"">Germs enter the body through the eyes.</div>","Germs","T","F","Infection","false","T","true",""
"","3117","html-keyboard-response","111","2.0.0","576474","pn8jq73pnhl","penguin","z","<div style=""font-size:30pt;"">Being cold can make a person sick.</div>","Germs","F","T","Contagion","false","T","false",""
"","1492","html-keyboard-response","112","2.0.0","578468","pn8jq73pnhl","penguin","z","<div style=""font-size:30pt;"">Germs have DNA.</div>","Germs","T","F","Microbe","false","T","true",""
"","1024","html-keyboard-response","113","2.0.0","579996","pn8jq73pnhl","penguin","z","<p>The next 20 statements will be about <b>Evolution</b>. Press any key to continue.</p>","","","","","","","",""
"","8327","html-keyboard-response","114","2.0.0","588324","pn8jq73pnhl","penguin","m","<div style=""font-size:30pt;"">Humans are descended from tree-dwelling creatures.</div>","Evolution","T","T","Phylogeny","true","F","false",""
"","6755","html-keyboard-response","115","2.0.0","595581","pn8jq73pnhl","penguin","m","<div style=""font-size:30pt;"">Most organisms have plenty to eat.</div>","Evolution","F","T","Selection","false","F","true",""
"","3808","html-keyboard-response","116","2.0.0","599892","pn8jq73pnhl","penguin","z","<div style=""font-size:30pt;"">Humans are more closely related to apes than monkeys.</div>","Evolution","T","T","Common ancestry","true","T","true",""
"","4535","html-keyboard-response","117","2.0.0","604929","pn8jq73pnhl","penguin","m","<div style=""font-size:30pt;"">Whales are more closely related to humans than fish.</div>","Evolution","T","F","Common ancestry","false","F","false",""
"","1885","html-keyboard-response","118","2.0.0","607316","pn8jq73pnhl","penguin","z","<div style=""font-size:30pt;"">Evolution requires long periods of time.</div>","Evolution","F","T","Variation","false","T","false",""
"","1521","html-keyboard-response","119","2.0.0","609338","pn8jq73pnhl","penguin","z","<div style=""font-size:30pt;"">Evolution requires climate stability.</div>","Evolution","F","F","Variation","true","T","false",""
"","6312","html-keyboard-response","120","2.0.0","616151","pn8jq73pnhl","penguin","m","<div style=""font-size:30pt;"">Humans are descended from chimpanzees.</div>","Evolution","F","T","Phylogeny","false","F","true",""
"","1446","html-keyboard-response","121","2.0.0","618100","pn8jq73pnhl","penguin","z","<div style=""font-size:30pt;"">Biological species evolve.</div>","Evolution","T","T","Adaptation","true","T","true",""
"","1960","html-keyboard-response","122","2.0.0","620564","pn8jq73pnhl","penguin","z","<div style=""font-size:30pt;"">Most organisms are adapted to their environment.</div>","Evolution","T","T","Selection","true","T","true",""
"","8158","html-keyboard-response","123","2.0.0","629223","pn8jq73pnhl","penguin","z","<div style=""font-size:30pt;"">Most organisms live in temperate climates.</div>","Evolution","F","F","Selection","true","T","false",""
"","1627","html-keyboard-response","124","2.0.0","631353","pn8jq73pnhl","penguin","z","<div style=""font-size:30pt;"">Individual organisms evolve.</div>","Evolution","F","T","Adaptation","false","T","false",""
"","1427","html-keyboard-response","125","2.0.0","633281","pn8jq73pnhl","penguin","t","<div style=""font-size:30pt;"">Press T if you are paying attention. Do not press z or m.</div>","Evolution","T3","T3","AttentionCheck","true","T3","true",""
"","1574","html-keyboard-response","126","2.0.0","635358","pn8jq73pnhl","penguin","m","<div style=""font-size:30pt;"">Humans are descended from plants.</div>","Evolution","F","F","Phylogeny","true","F","true",""
"","5509","html-keyboard-response","127","2.0.0","641369","pn8jq73pnhl","penguin","z","<div style=""font-size:30pt;"">Evolution requires differential survival.</div>","Evolution","T","T","Variation","true","T","true",""
"","12970","html-keyboard-response","128","2.0.0","654841","pn8jq73pnhl","penguin","m","<div style=""font-size:30pt;"">Computer viruses evolve.</div>","Evolution","T","F","Adaptation","false","F","false",""
"","2371","html-keyboard-response","129","2.0.0","657714","pn8jq73pnhl","penguin","m","<div style=""font-size:30pt;"">Whales are more closely related to plants than fish.</div>","Evolution","F","F","Common ancestry","true","F","true",""
"","1941","html-keyboard-response","130","2.0.0","660157","pn8jq73pnhl","penguin","m","<div style=""font-size:30pt;"">Humans are descended from sea-dwelling creatures.</div>","Evolution","T","F","Phylogeny","false","F","false",""
"","5287","html-keyboard-response","131","2.0.0","665945","pn8jq73pnhl","penguin","z","<div style=""font-size:30pt;"">Evolution requires within-species variation.</div>","Evolution","T","F","Variation","false","T","true",""
"","4841","html-keyboard-response","132","2.0.0","671288","pn8jq73pnhl","penguin","m","<div style=""font-size:30pt;"">Inanimate objects evolve.</div>","Evolution","F","F","Adaptation","true","F","true",""
"","3013","html-keyboard-response","133","2.0.0","674803","pn8jq73pnhl","penguin","m","<div style=""font-size:30pt;"">Apes are more closely related to monkeys than humans.</div>","Evolution","F","T","Common ancestry","false","F","true",""
"","7328","html-keyboard-response","134","2.0.0","682633","pn8jq73pnhl","penguin","m","<div style=""font-size:30pt;"">Most organisms die before leaving offspring.</div>","Evolution","T","F","Selection","false","F","false",""
"","930","html-keyboard-response","135","2.0.0","684065","pn8jq73pnhl","penguin"," ","<p>The next 20 statements will be about <b>Physiology</b>. Press any key to continue.</p>","","","","","","","",""
"","4176","html-keyboard-response","136","2.0.0","688242","pn8jq73pnhl","penguin","m","<div style=""font-size:30pt;"">A baby can be identical to an older sibling.</div>","Physiology","F","T","Kinship","false","F","true",""
"","10574","html-keyboard-response","137","2.0.0","699319","pn8jq73pnhl","penguin","z","<div style=""font-size:30pt;"">Bacteria turn food into energy.</div>","Physiology","T","F","Metabolism","false","T","true",""
"","5778","html-keyboard-response","138","2.0.0","705598","pn8jq73pnhl","penguin","m","<div style=""font-size:30pt;"">Screwdrivers can die.</div>","Physiology","F","F","Death","true","F","true",""
"","13358","html-keyboard-response","139","2.0.0","719458","pn8jq73pnhl","penguin","z","<div style=""font-size:30pt;"">Coral is alive.</div>","Physiology","T","F","Life","false","T","true",""
"","1190","html-keyboard-response","140","2.0.0","721150","pn8jq73pnhl","penguin","z","<div style=""font-size:30pt;"">Turtles can die.</div>","Physiology","T","T","Death","true","T","true",""
"","972","html-keyboard-response","141","2.0.0","722624","pn8jq73pnhl","penguin","z","<div style=""font-size:30pt;"">People turn food into energy.</div>","Physiology","T","T","Metabolism","true","T","true",""
"","740","html-keyboard-response","142","2.0.0","723866","pn8jq73pnhl","penguin","z","<div style=""font-size:30pt;"">Fish are alive.</div>","Physiology","T","T","Life","true","T","true",""
"","1680","html-keyboard-response","143","2.0.0","726047","pn8jq73pnhl","penguin","m","<div style=""font-size:30pt;"">The sun is alive.</div>","Physiology","F","T","Life","false","F","true",""
"","1242","html-keyboard-response","144","2.0.0","727791","pn8jq73pnhl","penguin","z","<div style=""font-size:30pt;"">Tigers can reproduce.</div>","Physiology","T","T","Reproduction","true","T","true",""
"","952","html-keyboard-response","145","2.0.0","729245","pn8jq73pnhl","penguin","m","<div style=""font-size:30pt;"">Chairs can reproduce.</div>","Physiology","F","F","Reproduction","true","F","true",""
"","4853","html-keyboard-response","146","2.0.0","734600","pn8jq73pnhl","penguin","m","<div style=""font-size:30pt;"">Rocks turn food into energy.</div>","Physiology","F","F","Metabolism","true","F","true",""
"","7846","html-keyboard-response","147","2.0.0","742948","pn8jq73pnhl","penguin","z","<div style=""font-size:30pt;"">A baby can be an uncle or an aunt.</div>","Physiology","T","F","Kinship","false","T","true",""
"","6459","html-keyboard-response","148","2.0.0","749911","pn8jq73pnhl","penguin","m","<div style=""font-size:30pt;"">Plants turn food into energy.</div>","Physiology","F","T","Metabolism","false","F","true",""
"","1628","html-keyboard-response","149","2.0.0","752042","pn8jq73pnhl","penguin","z","<div style=""font-size:30pt;"">Caterpillars can reproduce.</div>","Physiology","F","T","Reproduction","false","T","false",""
"","1826","html-keyboard-response","150","2.0.0","754371","pn8jq73pnhl","penguin","z","<div style=""font-size:30pt;"">A baby can be a mother or a father.</div>","Physiology","F","F","Kinship","true","T","false",""
"","1367","html-keyboard-response","151","2.0.0","756240","pn8jq73pnhl","penguin","m","<div style=""font-size:30pt;"">Clouds can die.</div>","Physiology","F","T","Death","false","F","true",""
"","3198","html-keyboard-response","152","2.0.0","759940","pn8jq73pnhl","penguin","m","<div style=""font-size:30pt;"">Ferns can reproduce.</div>","Physiology","T","F","Reproduction","false","F","false",""
"","890","html-keyboard-response","153","2.0.0","761334","pn8jq73pnhl","penguin","m","<div style=""font-size:30pt;"">Rocks are alive.</div>","Physiology","F","F","Life","true","F","true",""
"","1094","html-keyboard-response","154","2.0.0","762930","pn8jq73pnhl","penguin","z","<div style=""font-size:30pt;"">Mushrooms can die.</div>","Physiology","T","F","Death","false","T","true",""
"","2661","html-keyboard-response","155","2.0.0","766093","pn8jq73pnhl","penguin","t","<div style=""font-size:30pt;"">Press T if you are paying attention. Do not press z or m.</div>","Physiology","T3","T3","AttentionCheck","true","T3","true",""
"","1348","html-keyboard-response","156","2.0.0","767943","pn8jq73pnhl","penguin","z","<div style=""font-size:30pt;"">A baby can be a niece or a nephew.</div>","Physiology","T","T","Kinship","true","T","true",""
"","2802","html-keyboard-response","157","2.0.0","771247","pn8jq73pnhl","penguin"," ","
      <p>Thank you for completing this portion of the 
      experiment. We now have a few  questions for you.</p>
      <p>Press any key to proceed, and click submit once you are 
      done with the questions. Thanks! </p>
      ","","","","","","","",""
"","3654","survey-multi-choice","158","null","774911","pn8jq73pnhl","penguin","{""grade"":""2nd Year"",""gender"":""Female""}","","","","","","","","","[0,1]"
"","1586","survey","159","4.0.0","776614","pn8jq73pnhl","penguin","{""age"":null,""major"":null,""experiment_topic"":null,""technical_difficulties"":null}","","","","","","","","",""
