"success","rt","trial_type","trial_index","plugin_version","time_elapsed","random_id","participant_id","response","stimulus","category","correct_response","naive_theory","concept","is_consistent","response_tf","correct","question_order"
"true","3266","fullscreen","0","null","4271","pnhatsojhc5","pony","","","","","","","","","",""
"","1939","survey-text","1","2.0.0","6228","pnhatsojhc5","pony","{""participant_id"":""pony""}","","","","","","","","",""
"","15413","html-keyboard-response","2","2.0.0","21643","pnhatsojhc5","pony"," ","<p>Welcome to the experiment.<br><br>You will see 140 statements about various topics.<br><br>Please read the statements and respond with whether you think they are <b>true (Z key)</b> or <b>false (M key)</b> as quickly as possible!<br><br>Press any key to begin.</p>","","","","","","","",""
"","1899","html-keyboard-response","3","2.0.0","23544","pnhatsojhc5","pony"," ","<p>The next 20 statements will be about <b>Waves</b>. Press any key to continue.</p>","","","","","","","",""
"","2652","html-keyboard-response","4","2.0.0","26199","pnhatsojhc5","pony","m","<div style=""font-size:30pt;"">Red objects absorb red light.</div>","Waves","F","T","Color","false","F","true",""
"","1750","html-keyboard-response","5","2.0.0","28452","pnhatsojhc5","pony","z","<div style=""font-size:30pt;"">Red objects reflect red light.</div>","Waves","T","T","Color","true","T","true",""
"","2059","html-keyboard-response","6","2.0.0","31013","pnhatsojhc5","pony","z","<div style=""font-size:30pt;"">Black objects reflect all colors of light.</div>","Waves","F","T","Light","false","T","false",""
"","694","html-keyboard-response","7","2.0.0","32210","pnhatsojhc5","pony","m","<div style=""font-size:30pt;"">Red objects absorb blue light.</div>","Waves","T","F","Color","false","F","false",""
"","324","html-keyboard-response","8","2.0.0","33037","pnhatsojhc5","pony","z","<div style=""font-size:30pt;"">Rainbows contain all colors of light.</div>","Waves","T","T","Light","true","T","true",""
"","262","html-keyboard-response","9","2.0.0","33801","pnhatsojhc5","pony","m","<div style=""font-size:30pt;"">Shadows contain all colors of light.</div>","Waves","F","F","Light","true","F","true",""
"","270","html-keyboard-response","10","2.0.0","34573","pnhatsojhc5","pony","m","<div style=""font-size:30pt;"">Sound travels through foam.</div>","Waves","F","F","Propagation","true","F","true",""
"","286","html-keyboard-response","11","2.0.0","35362","pnhatsojhc5","pony","z","<div style=""font-size:30pt;"">Sounds can be dead or alive.</div>","Waves","F","F","Sound","true","T","false",""
"","417","html-keyboard-response","12","2.0.0","36281","pnhatsojhc5","pony","z","<div style=""font-size:30pt;"">Sounds can be near or far.</div>","Waves","F","T","Sound","false","T","false",""
"","469","html-keyboard-response","13","2.0.0","37253","pnhatsojhc5","pony","m","<div style=""font-size:30pt;"">Sound travels through air.</div>","Waves","T","T","Propagation","true","F","false",""
"","532","html-keyboard-response","14","2.0.0","38288","pnhatsojhc5","pony","m","<div style=""font-size:30pt;"">Mirrors reflect light.</div>","Waves","T","T","Reflection","true","F","false",""
"","2354","html-keyboard-response","15","2.0.0","41144","pnhatsojhc5","pony","t","<div style=""font-size:30pt;"">Press T if you are paying attention. Do not press z or m.</div>","Waves","T3","T3","AttentionCheck","true","T3","true",""
"","3971","html-keyboard-response","16","2.0.0","45617","pnhatsojhc5","pony","z","<div style=""font-size:30pt;"">Sounds can be loud or quiet.</div>","Waves","T","T","Sound","true","T","true",""
"","2095","html-keyboard-response","17","2.0.0","48213","pnhatsojhc5","pony","z","<div style=""font-size:30pt;"">Sound travels through metal.</div>","Waves","T","F","Propagation","false","T","true",""
"","840","html-keyboard-response","18","2.0.0","49556","pnhatsojhc5","pony","m","<div style=""font-size:30pt;"">Sound travels through a vacuum.</div>","Waves","F","T","Propagation","false","F","true",""
"","752","html-keyboard-response","19","2.0.0","50809","pnhatsojhc5","pony","z","<div style=""font-size:30pt;"">Foam reflects sound.</div>","Waves","F","F","Reflection","true","T","false",""
"","1145","html-keyboard-response","20","2.0.0","52455","pnhatsojhc5","pony","z","<div style=""font-size:30pt;"">Mirrors reflect sound.</div>","Waves","T","F","Reflection","false","T","true",""
"","671","html-keyboard-response","21","2.0.0","53628","pnhatsojhc5","pony","z","<div style=""font-size:30pt;"">Red objects reflect blue light.</div>","Waves","F","F","Color","true","T","false",""
"","777","html-keyboard-response","22","2.0.0","54906","pnhatsojhc5","pony","m","<div style=""font-size:30pt;"">Prisms reflect light.</div>","Waves","F","T","Reflection","false","F","true",""
"","424","html-keyboard-response","23","2.0.0","55833","pnhatsojhc5","pony","m","<div style=""font-size:30pt;"">Sounds can be direct or reflected.</div>","Waves","T","F","Sound","false","F","false",""
"","1011","html-keyboard-response","24","2.0.0","57345","pnhatsojhc5","pony","z","<div style=""font-size:30pt;"">White light contains all colors of light.</div>","Waves","T","F","Light","false","T","true",""
"","1290","html-keyboard-response","25","2.0.0","59136","pnhatsojhc5","pony","m","<p>The next 20 statements will be about <b>Thermodynamics</b>. Press any key to continue.</p>","","","","","","","",""
"","4478","html-keyboard-response","26","2.0.0","63617","pnhatsojhc5","pony","z","<div style=""font-size:30pt;"">Two cups of ice have a lower temperature than one.</div>","Thermodynamics","F","T","Temperature","false","T","false",""
"","1390","html-keyboard-response","27","2.0.0","65509","pnhatsojhc5","pony","m","<div style=""font-size:30pt;"">Gravity has heat.</div>","Thermodynamics","F","F","Heat","true","F","true",""
"","1193","html-keyboard-response","28","2.0.0","67205","pnhatsojhc5","pony","z","<div style=""font-size:30pt;"">Cold objects transfer heat to even colder objects.</div>","Thermodynamics","T","F","Heat transfer","false","T","true",""
"","543","html-keyboard-response","29","2.0.0","68250","pnhatsojhc5","pony","z","<div style=""font-size:30pt;"">Rain produces heat.</div>","Thermodynamics","F","F","Heat source","true","T","false",""
"","1611","html-keyboard-response","30","2.0.0","70363","pnhatsojhc5","pony","m","<div style=""font-size:30pt;"">Cold objects transfer heat to warm objects.</div>","Thermodynamics","F","F","Heat transfer","true","F","true",""
"","495","html-keyboard-response","31","2.0.0","71359","pnhatsojhc5","pony","m","<div style=""font-size:30pt;"">Atoms have heat.</div>","Thermodynamics","F","T","Heat","false","F","true",""
"","833","html-keyboard-response","32","2.0.0","72693","pnhatsojhc5","pony","z","<div style=""font-size:30pt;"">Water transfers heat to ice.</div>","Thermodynamics","T","T","Heat transfer","true","T","true",""
"","1548","html-keyboard-response","33","2.0.0","74743","pnhatsojhc5","pony","m","<div style=""font-size:30pt;"">Heat increases an object's weight.</div>","Thermodynamics","F","T","Thermal expansion","false","F","true",""
"","758","html-keyboard-response","34","2.0.0","76004","pnhatsojhc5","pony","m","<div style=""font-size:30pt;"">Coats produce heat.</div>","Thermodynamics","F","T","Heat source","false","F","true",""
"","415","html-keyboard-response","35","2.0.0","76920","pnhatsojhc5","pony","z","<div style=""font-size:30pt;"">Pressure produces heat.</div>","Thermodynamics","T","F","Heat source","false","T","true",""
"","409","html-keyboard-response","36","2.0.0","77831","pnhatsojhc5","pony","m","<div style=""font-size:30pt;"">Ice has heat.</div>","Thermodynamics","T","F","Heat","false","F","false",""
"","504","html-keyboard-response","37","2.0.0","78837","pnhatsojhc5","pony","m","<div style=""font-size:30pt;"">Steam has a lower temperature than ice.</div>","Thermodynamics","F","F","Temperature","true","F","true",""
"","371","html-keyboard-response","38","2.0.0","79711","pnhatsojhc5","pony","m","<div style=""font-size:30pt;"">Water transfers heat to steam.</div>","Thermodynamics","F","T","Heat transfer","false","F","true",""
"","1307","html-keyboard-response","39","2.0.0","81520","pnhatsojhc5","pony","t","<div style=""font-size:30pt;"">Press T if you are paying attention. Do not press z or m.</div>","Thermodynamics","T3","T3","AttentionCheck","true","T3","true",""
"","889","html-keyboard-response","40","2.0.0","82912","pnhatsojhc5","pony","z","<div style=""font-size:30pt;"">Ice has a lower temperature than water.</div>","Thermodynamics","T","T","Temperature","true","T","true",""
"","682","html-keyboard-response","41","2.0.0","84096","pnhatsojhc5","pony","m","<div style=""font-size:30pt;"">Heat increases an object's size.</div>","Thermodynamics","T","F","Thermal expansion","false","F","false",""
"","528","html-keyboard-response","42","2.0.0","85126","pnhatsojhc5","pony","m","<div style=""font-size:30pt;"">Boiling water has a lower temperature than steam.</div>","Thermodynamics","T","F","Temperature","false","F","false",""
"","714","html-keyboard-response","43","2.0.0","86343","pnhatsojhc5","pony","z","<div style=""font-size:30pt;"">Heat increases an object's temperature.</div>","Thermodynamics","T","T","Thermal expansion","true","T","true",""
"","457","html-keyboard-response","44","2.0.0","87301","pnhatsojhc5","pony","z","<div style=""font-size:30pt;"">The sun has heat.</div>","Thermodynamics","T","T","Heat","true","T","true",""
"","595","html-keyboard-response","45","2.0.0","88398","pnhatsojhc5","pony","z","<div style=""font-size:30pt;"">Ovens produce heat.</div>","Thermodynamics","T","T","Heat source","true","T","true",""
"","1917","html-keyboard-response","46","2.0.0","90817","pnhatsojhc5","pony","z","<div style=""font-size:30pt;"">Heat increases an object's color.</div>","Thermodynamics","F","F","Thermal expansion","true","T","false",""
"","1050","html-keyboard-response","47","2.0.0","92369","pnhatsojhc5","pony","m","<p>The next 20 statements will be about <b>Matter</b>. Press any key to continue.</p>","","","","","","","",""
"","5488","html-keyboard-response","48","2.0.0","97857","pnhatsojhc5","pony","m","<div style=""font-size:30pt;"">A liter of water weighs more than a liter of ice.</div>","Matter","T","F","Weight","false","F","false",""
"","3319","html-keyboard-response","49","2.0.0","101678","pnhatsojhc5","pony","m","<div style=""font-size:30pt;"">Atoms are mostly empty space.</div>","Matter","T","F","Atom","false","F","false",""
"","933","html-keyboard-response","50","2.0.0","103113","pnhatsojhc5","pony","m","<div style=""font-size:30pt;"">Atoms are weightless.</div>","Matter","F","T","Atom","false","F","true",""
"","1297","html-keyboard-response","51","2.0.0","104917","pnhatsojhc5","pony","z","<div style=""font-size:30pt;"">A log can be cut in half.</div>","Matter","T","T","Divisibility","true","T","true",""
"","800","html-keyboard-response","52","2.0.0","106222","pnhatsojhc5","pony","z","<div style=""font-size:30pt;"">Foam is denser than brick.</div>","Matter","F","F","Density","true","T","false",""
"","1935","html-keyboard-response","53","2.0.0","108665","pnhatsojhc5","pony","m","<div style=""font-size:30pt;"">A liter of water weighs more than a liter of air.</div>","Matter","T","T","Weight","true","F","false",""
"","4610","html-keyboard-response","54","2.0.0","113787","pnhatsojhc5","pony","z","<div style=""font-size:30pt;"">Rocks are composed of matter.</div>","Matter","T","T","Mass","true","T","true",""
"","815","html-keyboard-response","55","2.0.0","115106","pnhatsojhc5","pony","z","<div style=""font-size:30pt;"">Ice is denser than water.</div>","Matter","F","T","Density","false","T","false",""
"","1443","html-keyboard-response","56","2.0.0","117052","pnhatsojhc5","pony","z","<div style=""font-size:30pt;"">A cold penny is denser than a hot penny.</div>","Matter","T","F","Density","false","T","true",""
"","852","html-keyboard-response","57","2.0.0","118407","pnhatsojhc5","pony","m","<div style=""font-size:30pt;"">An idea can be cut in half.</div>","Matter","F","F","Divisibility","true","F","true",""
"","2275","html-keyboard-response","58","2.0.0","121186","pnhatsojhc5","pony","m","<div style=""font-size:30pt;"">Steel is denser than foam.</div>","Matter","T","T","Density","true","F","false",""
"","692","html-keyboard-response","59","2.0.0","122380","pnhatsojhc5","pony","z","<div style=""font-size:30pt;"">Fire is composed of matter.</div>","Matter","F","T","Mass","false","T","false",""
"","1324","html-keyboard-response","60","2.0.0","124207","pnhatsojhc5","pony","m","<div style=""font-size:30pt;"">Atoms are the constituents of matter.</div>","Matter","T","T","Atom","true","F","false",""
"","1200","html-keyboard-response","61","2.0.0","125909","pnhatsojhc5","pony","m","<div style=""font-size:30pt;"">Atoms are visible to the naked eye.</div>","Matter","F","F","Atom","true","F","true",""
"","1428","html-keyboard-response","62","2.0.0","127841","pnhatsojhc5","pony","m","<div style=""font-size:30pt;"">Air is composed of matter.</div>","Matter","T","F","Mass","false","F","false",""
"","1541","html-keyboard-response","63","2.0.0","129886","pnhatsojhc5","pony","z","<div style=""font-size:30pt;"">Numbers are composed of matter.</div>","Matter","F","F","Mass","true","T","false",""
"","1986","html-keyboard-response","64","2.0.0","132375","pnhatsojhc5","pony","m","<div style=""font-size:30pt;"">A grain of sand can be cut in half.</div>","Matter","T","F","Divisibility","false","F","false",""
"","2812","html-keyboard-response","65","2.0.0","135690","pnhatsojhc5","pony","m","<div style=""font-size:30pt;"">A pound of steel weighs more than a ton of steel.</div>","Matter","F","F","Weight","true","F","true",""
"","1581","html-keyboard-response","66","2.0.0","137773","pnhatsojhc5","pony","z","<div style=""font-size:30pt;"">A shadow can be cut in half.</div>","Matter","F","T","Divisibility","false","T","false",""
"","573","html-keyboard-response","67","2.0.0","138848","pnhatsojhc5","pony","m","<div style=""font-size:30pt;"">A pound of steel weighs more than a pound of feathers.</div>","Matter","F","T","Weight","false","F","true",""
"","1767","html-keyboard-response","68","2.0.0","141118","pnhatsojhc5","pony","t","<div style=""font-size:30pt;"">Press T if you are paying attention. Do not press z or m.</div>","Matter","T3","T3","AttentionCheck","true","T3","true",""
"","992","html-keyboard-response","69","2.0.0","142612","pnhatsojhc5","pony","m","<p>The next 20 statements will be about <b>Physiology</b>. Press any key to continue.</p>","","","","","","","",""
"","1162","html-keyboard-response","70","2.0.0","143776","pnhatsojhc5","pony","m","<div style=""font-size:30pt;"">Bacteria turn food into energy.</div>","Physiology","T","F","Metabolism","false","F","false",""
"","282","html-keyboard-response","71","2.0.0","144559","pnhatsojhc5","pony","m","<div style=""font-size:30pt;"">Mushrooms can die.</div>","Physiology","T","F","Death","false","F","false",""
"","804","html-keyboard-response","72","2.0.0","145866","pnhatsojhc5","pony","m","<div style=""font-size:30pt;"">Screwdrivers can die.</div>","Physiology","F","F","Death","true","F","true",""
"","900","html-keyboard-response","73","2.0.0","147268","pnhatsojhc5","pony","z","<div style=""font-size:30pt;"">Plants turn food into energy.</div>","Physiology","F","T","Metabolism","false","T","false",""
"","755","html-keyboard-response","74","2.0.0","148525","pnhatsojhc5","pony","m","<div style=""font-size:30pt;"">Rocks are alive.</div>","Physiology","F","F","Life","true","F","true",""
"","1100","html-keyboard-response","75","2.0.0","150128","pnhatsojhc5","pony","m","<div style=""font-size:30pt;"">Chairs can reproduce.</div>","Physiology","F","F","Reproduction","true","F","true",""
"","663","html-keyboard-response","76","2.0.0","151293","pnhatsojhc5","pony","m","<div style=""font-size:30pt;"">Clouds can die.</div>","Physiology","F","T","Death","false","F","true",""
"","289","html-keyboard-response","77","2.0.0","152085","pnhatsojhc5","pony","m","<div style=""font-size:30pt;"">The sun is alive.</div>","Physiology","F","T","Life","false","F","true",""
"","323","html-keyboard-response","78","2.0.0","152910","pnhatsojhc5","pony","m","<div style=""font-size:30pt;"">Press T if you are paying attention. Do not press z or m.</div>","Physiology","T3","T3","AttentionCheck","true","F","false",""
"","1169","html-keyboard-response","79","2.0.0","154581","pnhatsojhc5","pony","m","<div style=""font-size:30pt;"">Turtles can die.</div>","Physiology","T","T","Death","true","F","false",""
"","373","html-keyboard-response","80","2.0.0","155455","pnhatsojhc5","pony","m","<div style=""font-size:30pt;"">People turn food into energy.</div>","Physiology","T","T","Metabolism","true","F","false",""
"","325","html-keyboard-response","81","2.0.0","156283","pnhatsojhc5","pony","m","<div style=""font-size:30pt;"">Ferns can reproduce.</div>","Physiology","T","F","Reproduction","false","F","false",""
"","81","html-keyboard-response","82","2.0.0","156865","pnhatsojhc5","pony","z","<div style=""font-size:30pt;"">Coral is alive.</div>","Physiology","T","F","Life","false","T","true",""
"","177","html-keyboard-response","83","2.0.0","157544","pnhatsojhc5","pony","m","<div style=""font-size:30pt;"">Tigers can reproduce.</div>","Physiology","T","T","Reproduction","true","F","false",""
"","300","html-keyboard-response","84","2.0.0","158346","pnhatsojhc5","pony","z","<div style=""font-size:30pt;"">Caterpillars can reproduce.</div>","Physiology","F","T","Reproduction","false","T","false",""
"","291","html-keyboard-response","85","2.0.0","159139","pnhatsojhc5","pony","m","<div style=""font-size:30pt;"">A baby can be a mother or a father.</div>","Physiology","F","F","Kinship","true","F","true",""
"","240","html-keyboard-response","86","2.0.0","159882","pnhatsojhc5","pony","z","<div style=""font-size:30pt;"">A baby can be identical to an older sibling.</div>","Physiology","F","T","Kinship","false","T","false",""
"","27","html-keyboard-response","87","2.0.0","160411","pnhatsojhc5","pony","m","<div style=""font-size:30pt;"">Fish are alive.</div>","Physiology","T","T","Life","true","F","false",""
"","186","html-keyboard-response","88","2.0.0","161099","pnhatsojhc5","pony","z","<div style=""font-size:30pt;"">A baby can be an uncle or an aunt.</div>","Physiology","T","F","Kinship","false","T","true",""
"","1355","html-keyboard-response","89","2.0.0","162955","pnhatsojhc5","pony","m","<div style=""font-size:30pt;"">Rocks turn food into energy.</div>","Physiology","F","F","Metabolism","true","F","true",""
"","2198","html-keyboard-response","90","2.0.0","165656","pnhatsojhc5","pony","z","<div style=""font-size:30pt;"">A baby can be a niece or a nephew.</div>","Physiology","T","T","Kinship","true","T","true",""
"","701","html-keyboard-response","91","2.0.0","166860","pnhatsojhc5","pony","m","<p>The next 20 statements will be about <b>Germs</b>. Press any key to continue.</p>","","","","","","","",""
"","812","html-keyboard-response","92","2.0.0","167673","pnhatsojhc5","pony","m","<div style=""font-size:30pt;"">Germs have DNA.</div>","Germs","T","F","Microbe","false","F","false",""
"","1738","html-keyboard-response","93","2.0.0","169912","pnhatsojhc5","pony","z","<div style=""font-size:30pt;"">Germs enter the body through the eyes.</div>","Germs","T","F","Infection","false","T","true",""
"","1053","html-keyboard-response","94","2.0.0","171466","pnhatsojhc5","pony","m","<div style=""font-size:30pt;"">Germs have an odor.</div>","Germs","F","T","Microbe","false","F","true",""
"","967","html-keyboard-response","95","2.0.0","172934","pnhatsojhc5","pony","m","<div style=""font-size:30pt;"">Sunshine contains germs.</div>","Germs","F","F","Contamination","true","F","true",""
"","767","html-keyboard-response","96","2.0.0","174203","pnhatsojhc5","pony","z","<div style=""font-size:30pt;"">Heat kills germs.</div>","Germs","T","F","Sterilization","false","T","true",""
"","941","html-keyboard-response","97","2.0.0","175646","pnhatsojhc5","pony","m","<div style=""font-size:30pt;"">Germs have feelings.</div>","Germs","F","F","Microbe","true","F","true",""
"","1253","html-keyboard-response","98","2.0.0","177400","pnhatsojhc5","pony","z","<div style=""font-size:30pt;"">Dish sponges contain germs.</div>","Germs","T","F","Contamination","false","T","true",""
"","1077","html-keyboard-response","99","2.0.0","178979","pnhatsojhc5","pony","z","<div style=""font-size:30pt;"">Germs have a shape.</div>","Germs","T","T","Microbe","true","T","true",""
"","897","html-keyboard-response","100","2.0.0","180377","pnhatsojhc5","pony","z","<div style=""font-size:30pt;"">Alcohol kills germs.</div>","Germs","T","T","Sterilization","true","T","true",""
"","1140","html-keyboard-response","101","2.0.0","182019","pnhatsojhc5","pony","m","<div style=""font-size:30pt;"">Being depressed can make a person sick.</div>","Germs","T","F","Contagion","false","F","false",""
"","2079","html-keyboard-response","102","2.0.0","184599","pnhatsojhc5","pony","z","<div style=""font-size:30pt;"">Germs enter the body through the skin.</div>","Germs","F","T","Infection","false","T","false",""
"","1059","html-keyboard-response","103","2.0.0","186160","pnhatsojhc5","pony","z","<div style=""font-size:30pt;"">Rotting meat contains germs.</div>","Germs","T","T","Contamination","true","T","true",""
"","619","html-keyboard-response","104","2.0.0","187280","pnhatsojhc5","pony","z","<div style=""font-size:30pt;"">Water kills germs.</div>","Germs","F","T","Sterilization","false","T","false",""
"","1713","html-keyboard-response","105","2.0.0","189495","pnhatsojhc5","pony","m","<div style=""font-size:30pt;"">Germs enter the body through the hair.</div>","Germs","F","F","Infection","true","F","true",""
"","1576","html-keyboard-response","106","2.0.0","191572","pnhatsojhc5","pony","z","<div style=""font-size:30pt;"">Press T if you are paying attention. Do not press z or m.</div>","Germs","T3","T3","AttentionCheck","true","T","false",""
"","808","html-keyboard-response","107","2.0.0","192882","pnhatsojhc5","pony","m","<div style=""font-size:30pt;"">Being sneezed on can make a person sick.</div>","Germs","T","T","Contagion","true","F","false",""
"","808","html-keyboard-response","108","2.0.0","194192","pnhatsojhc5","pony","m","<div style=""font-size:30pt;"">Urine contains germs.</div>","Germs","F","T","Contamination","false","F","true",""
"","527","html-keyboard-response","109","2.0.0","195220","pnhatsojhc5","pony","m","<div style=""font-size:30pt;"">Germs enter the body through cuts.</div>","Germs","T","T","Infection","true","F","false",""
"","923","html-keyboard-response","110","2.0.0","196645","pnhatsojhc5","pony","m","<div style=""font-size:30pt;"">Being cold can make a person sick.</div>","Germs","F","T","Contagion","false","F","true",""
"","2114","html-keyboard-response","111","2.0.0","199259","pnhatsojhc5","pony","m","<div style=""font-size:30pt;"">Being happy can make a person sick.</div>","Germs","F","F","Contagion","true","F","true",""
"","920","html-keyboard-response","112","2.0.0","200680","pnhatsojhc5","pony","m","<div style=""font-size:30pt;"">Kindness kills germs.</div>","Germs","F","F","Sterilization","true","F","true",""
"","4265","html-keyboard-response","113","2.0.0","205448","pnhatsojhc5","pony","m","<p>The next 20 statements will be about <b>Mechanics</b>. Press any key to continue.</p>","","","","","","","",""
"","3184","html-keyboard-response","114","2.0.0","208633","pnhatsojhc5","pony","z","<div style=""font-size:30pt;"">Color can be transferred from one object to another.</div>","Mechanics","F","F","Momentum","true","T","false",""
"","643","html-keyboard-response","115","2.0.0","209777","pnhatsojhc5","pony","m","<div style=""font-size:30pt;"">Anvils fall through air faster than feathers.</div>","Mechanics","T","T","Gravity","true","F","false",""
"","2753","html-keyboard-response","116","2.0.0","213032","pnhatsojhc5","pony","z","<div style=""font-size:30pt;"">Forces can be male or female.</div>","Mechanics","F","F","Force","true","T","false",""
"","1367","html-keyboard-response","117","2.0.0","214901","pnhatsojhc5","pony","z","<div style=""font-size:30pt;"">Forces can be strong or weak.</div>","Mechanics","T","T","Force","true","T","true",""
"","1141","html-keyboard-response","118","2.0.0","216543","pnhatsojhc5","pony","m","<div style=""font-size:30pt;"">Pointy objects fall through air faster than flat objects.</div>","Mechanics","T","F","Gravity","false","F","false",""
"","1370","html-keyboard-response","119","2.0.0","218415","pnhatsojhc5","pony","t","<div style=""font-size:30pt;"">Press T if you are paying attention. Do not press z or m.</div>","Mechanics","T3","T3","AttentionCheck","true","T3","true",""
"","1177","html-keyboard-response","120","2.0.0","220094","pnhatsojhc5","pony","z","<div style=""font-size:30pt;"">Constant acceleration requires constant force.</div>","Mechanics","T","T","Acceleration","true","T","true",""
"","1999","html-keyboard-response","121","2.0.0","222595","pnhatsojhc5","pony","m","<div style=""font-size:30pt;"">Forces can be straight or curved.</div>","Mechanics","F","T","Force","false","F","true",""
"","1585","html-keyboard-response","122","2.0.0","224682","pnhatsojhc5","pony","m","<div style=""font-size:30pt;"">A moving bullet loses height.</div>","Mechanics","T","F","Velocity","false","F","false",""
"","957","html-keyboard-response","123","2.0.0","226140","pnhatsojhc5","pony","m","<div style=""font-size:30pt;"">Constant force can yield constant rest.</div>","Mechanics","T","F","Acceleration","false","F","false",""
"","292","html-keyboard-response","124","2.0.0","226934","pnhatsojhc5","pony","z","<div style=""font-size:30pt;"">Bright objects fall through air faster than dark objects.</div>","Mechanics","F","F","Gravity","true","T","false",""
"","415","html-keyboard-response","125","2.0.0","227851","pnhatsojhc5","pony","m","<div style=""font-size:30pt;"">A moving bullet loses speed.</div>","Mechanics","T","T","Velocity","true","F","false",""
"","352","html-keyboard-response","126","2.0.0","228704","pnhatsojhc5","pony","m","<div style=""font-size:30pt;"">Constant speed requires constant acceleration.</div>","Mechanics","F","F","Acceleration","true","F","true",""
"","318","html-keyboard-response","127","2.0.0","229523","pnhatsojhc5","pony","m","<div style=""font-size:30pt;"">Forces can be balanced or unbalanced.</div>","Mechanics","T","F","Force","false","F","false",""
"","4126","html-keyboard-response","128","2.0.0","234150","pnhatsojhc5","pony","m","<div style=""font-size:30pt;"">Heavy balls fall through air faster than light balls.</div>","Mechanics","F","T","Gravity","false","F","true",""
"","971","html-keyboard-response","129","2.0.0","235623","pnhatsojhc5","pony","m","<div style=""font-size:30pt;"">A moving bullet loses force.</div>","Mechanics","F","T","Velocity","false","F","true",""
"","519","html-keyboard-response","130","2.0.0","236644","pnhatsojhc5","pony","m","<div style=""font-size:30pt;"">Forces can be transferred from one object to another.</div>","Mechanics","F","T","Momentum","false","F","true",""
"","436","html-keyboard-response","131","2.0.0","237581","pnhatsojhc5","pony","z","<div style=""font-size:30pt;"">Momentum can be transferred from one object to another.</div>","Mechanics","T","T","Momentum","true","T","true",""
"","356","html-keyboard-response","132","2.0.0","238440","pnhatsojhc5","pony","m","<div style=""font-size:30pt;"">Constant motion requires constant force.</div>","Mechanics","F","T","Acceleration","false","F","true",""
"","436","html-keyboard-response","133","2.0.0","239377","pnhatsojhc5","pony","z","<div style=""font-size:30pt;"">A moving bullet loses weight.</div>","Mechanics","F","F","Velocity","true","T","false",""
"","381","html-keyboard-response","134","2.0.0","240260","pnhatsojhc5","pony","m","<div style=""font-size:30pt;"">Energy can be transferred from one object to another.</div>","Mechanics","T","F","Momentum","false","F","false",""
"","321","html-keyboard-response","135","2.0.0","241083","pnhatsojhc5","pony","m","<p>The next 20 statements will be about <b>Genetics</b>. Press any key to continue.</p>","","","","","","","",""
"","2149","html-keyboard-response","136","2.0.0","243233","pnhatsojhc5","pony","m","<div style=""font-size:30pt;"">Pierced ears are heritable.</div>","Genetics","F","F","Heritability","true","F","true",""
"","1977","html-keyboard-response","137","2.0.0","245711","pnhatsojhc5","pony","m","<div style=""font-size:30pt;"">Humans have more chromosomes than mosquitoes.</div>","Genetics","T","T","Chromosome","true","F","false",""
"","1890","html-keyboard-response","138","2.0.0","248104","pnhatsojhc5","pony","m","<div style=""font-size:30pt;"">Two blue-eyed parents could have a brown-eyed baby.</div>","Genetics","F","F","Dominance","true","F","true",""
"","3316","html-keyboard-response","139","2.0.0","251923","pnhatsojhc5","pony","m","<div style=""font-size:30pt;"">Genes that code for eye color can be found in the eye.</div>","Genetics","T","T","Expression","true","F","false",""
"","2940","html-keyboard-response","140","2.0.0","255364","pnhatsojhc5","pony","m","<div style=""font-size:30pt;"">Sunscreen can change one's genome.</div>","Genetics","F","F","Mutation","true","F","true",""
"","1430","html-keyboard-response","141","2.0.0","257296","pnhatsojhc5","pony","t","<div style=""font-size:30pt;"">Press T if you are paying attention. Do not press z or m.</div>","Genetics","T3","T3","AttentionCheck","true","T3","true",""
"","1103","html-keyboard-response","142","2.0.0","258901","pnhatsojhc5","pony","z","<div style=""font-size:30pt;"">Radiation can change one's genome.</div>","Genetics","T","T","Mutation","true","T","true",""
"","1755","html-keyboard-response","143","2.0.0","261158","pnhatsojhc5","pony","m","<div style=""font-size:30pt;"">Exercise can change one's genome.</div>","Genetics","F","T","Mutation","false","F","true",""
"","1417","html-keyboard-response","144","2.0.0","263078","pnhatsojhc5","pony","m","<div style=""font-size:30pt;"">Adults have more chromosomes than children.</div>","Genetics","F","T","Chromosome","false","F","true",""
"","2503","html-keyboard-response","145","2.0.0","266082","pnhatsojhc5","pony","m","<div style=""font-size:30pt;"">Two brown-eyed parents could have a blue-eyed baby.</div>","Genetics","T","F","Dominance","false","F","false",""
"","710","html-keyboard-response","146","2.0.0","267294","pnhatsojhc5","pony","m","<div style=""font-size:30pt;"">Intelligence is heritable.</div>","Genetics","T","F","Heritability","false","F","false",""
"","1514","html-keyboard-response","147","2.0.0","269310","pnhatsojhc5","pony","m","<div style=""font-size:30pt;"">Skin cells have more chromosomes than egg cells.</div>","Genetics","T","F","Chromosome","false","F","false",""
"","1173","html-keyboard-response","148","2.0.0","270984","pnhatsojhc5","pony","m","<div style=""font-size:30pt;"">Genes that code for eye color can be found in the liver.</div>","Genetics","T","F","Expression","false","F","false",""
"","801","html-keyboard-response","149","2.0.0","272288","pnhatsojhc5","pony","m","<div style=""font-size:30pt;"">Genes that code for eye color can be found in hair.</div>","Genetics","F","F","Expression","true","F","true",""
"","1645","html-keyboard-response","150","2.0.0","274434","pnhatsojhc5","pony","m","<div style=""font-size:30pt;"">Men have more chromosomes than women.</div>","Genetics","F","F","Chromosome","true","F","true",""
"","796","html-keyboard-response","151","2.0.0","275731","pnhatsojhc5","pony","m","<div style=""font-size:30pt;"">Viruses can change one's genome.</div>","Genetics","T","F","Mutation","false","F","false",""
"","1147","html-keyboard-response","152","2.0.0","277381","pnhatsojhc5","pony","m","<div style=""font-size:30pt;"">A blue-eyed baby must have two blue-eyed parents.</div>","Genetics","F","T","Dominance","false","F","true",""
"","1496","html-keyboard-response","153","2.0.0","279379","pnhatsojhc5","pony","z","<div style=""font-size:30pt;"">Two brown-eyed parents could have a brown-eyed baby.</div>","Genetics","T","T","Dominance","true","T","true",""
"","1082","html-keyboard-response","154","2.0.0","280962","pnhatsojhc5","pony","m","<div style=""font-size:30pt;"">Immunity to chickenpox is heritable.</div>","Genetics","F","T","Heritability","false","F","true",""
"","908","html-keyboard-response","155","2.0.0","282371","pnhatsojhc5","pony","m","<div style=""font-size:30pt;"">Genes that code for eye color can be found in tears.</div>","Genetics","F","T","Expression","false","F","true",""
"","903","html-keyboard-response","156","2.0.0","283776","pnhatsojhc5","pony","m","<div style=""font-size:30pt;"">Hair color is heritable.</div>","Genetics","T","T","Heritability","true","F","false",""
"","2342","html-keyboard-response","157","2.0.0","286619","pnhatsojhc5","pony"," ","
      <p>Thank you for completing this portion of the 
      experiment. We now have a few  questions for you.</p>
      <p>Press any key to proceed, and click submit once you are 
      done with the questions. Thanks! </p>
      ","","","","","","","",""
"","4946","survey-multi-choice","158","null","291568","pnhatsojhc5","pony","{""grade"":""4th Year"",""gender"":""Female""}","","","","","","","","","[0,1]"
"","16781","survey","159","4.0.0","308507","pnhatsojhc5","pony","{""age"":21,""major"":""cognitive science"",""experiment_topic"":""not sure"",""technical_difficulties"":""no""}","","","","","","","","",""
