"success","rt","trial_type","trial_index","plugin_version","time_elapsed","random_id","participant_id","response","stimulus","category","correct_response","naive_theory","concept","is_consistent","response_tf","correct","question_order"
"true","2586","fullscreen","0","null","3597","pp5t65dfqxq","squirrel","","","","","","","","","",""
"","4219","survey-text","1","2.0.0","7826","pp5t65dfqxq","squirrel","{""participant_id"":""squirrel""}","","","","","","","","",""
"","1862","html-keyboard-response","2","2.0.0","9691","pp5t65dfqxq","squirrel"," ","<p>Welcome to the experiment.<br><br>You will see 140 statements about various topics.<br><br>Please read the statements and respond with whether you think they are <b>true (Z key)</b> or <b>false (M key)</b> as quickly as possible!<br><br>Press any key to begin.</p>","","","","","","","",""
"","972","html-keyboard-response","3","2.0.0","10665","pp5t65dfqxq","squirrel"," ","<p>The next 20 statements will be about <b>Evolution</b>. Press any key to continue.</p>","","","","","","","",""
"","1935","html-keyboard-response","4","2.0.0","12602","pp5t65dfqxq","squirrel","z","<div style=""font-size:30pt;"">Most organisms have plenty to eat.</div>","Evolution","F","T","Selection","false","T","false",""
"","2150","html-keyboard-response","5","2.0.0","15263","pp5t65dfqxq","squirrel","z","<div style=""font-size:30pt;"">Apes are more closely related to monkeys than humans.</div>","Evolution","F","T","Common ancestry","false","T","false",""
"","1682","html-keyboard-response","6","2.0.0","17451","pp5t65dfqxq","squirrel","m","<div style=""font-size:30pt;"">Evolution requires climate stability.</div>","Evolution","F","F","Variation","true","F","true",""
"","1508","html-keyboard-response","7","2.0.0","19473","pp5t65dfqxq","squirrel","m","<div style=""font-size:30pt;"">Whales are more closely related to humans than fish.</div>","Evolution","T","F","Common ancestry","false","F","false",""
"","1023","html-keyboard-response","8","2.0.0","20999","pp5t65dfqxq","squirrel","z","<div style=""font-size:30pt;"">Biological species evolve.</div>","Evolution","T","T","Adaptation","true","T","true",""
"","814","html-keyboard-response","9","2.0.0","22316","pp5t65dfqxq","squirrel","m","<div style=""font-size:30pt;"">Inanimate objects evolve.</div>","Evolution","F","F","Adaptation","true","F","true",""
"","1314","html-keyboard-response","10","2.0.0","24155","pp5t65dfqxq","squirrel","m","<div style=""font-size:30pt;"">Whales are more closely related to plants than fish.</div>","Evolution","F","F","Common ancestry","true","F","true",""
"","1141","html-keyboard-response","11","2.0.0","25801","pp5t65dfqxq","squirrel","t","<div style=""font-size:30pt;"">Press T if you are paying attention. Do not press z or m.</div>","Evolution","T3","T3","AttentionCheck","true","T3","true",""
"","1668","html-keyboard-response","12","2.0.0","27973","pp5t65dfqxq","squirrel","z","<div style=""font-size:30pt;"">Evolution requires long periods of time.</div>","Evolution","F","T","Variation","false","T","false",""
"","1274","html-keyboard-response","13","2.0.0","29751","pp5t65dfqxq","squirrel","m","<div style=""font-size:30pt;"">Humans are descended from sea-dwelling creatures.</div>","Evolution","T","F","Phylogeny","false","F","false",""
"","1832","html-keyboard-response","14","2.0.0","32094","pp5t65dfqxq","squirrel","z","<div style=""font-size:30pt;"">Most organisms are adapted to their environment.</div>","Evolution","T","T","Selection","true","T","true",""
"","1034","html-keyboard-response","15","2.0.0","33634","pp5t65dfqxq","squirrel","z","<div style=""font-size:30pt;"">Humans are descended from tree-dwelling creatures.</div>","Evolution","T","T","Phylogeny","true","T","true",""
"","1606","html-keyboard-response","16","2.0.0","35759","pp5t65dfqxq","squirrel","z","<div style=""font-size:30pt;"">Humans are more closely related to apes than monkeys.</div>","Evolution","T","T","Common ancestry","true","T","true",""
"","1135","html-keyboard-response","17","2.0.0","37403","pp5t65dfqxq","squirrel","m","<div style=""font-size:30pt;"">Humans are descended from plants.</div>","Evolution","F","F","Phylogeny","true","F","true",""
"","785","html-keyboard-response","18","2.0.0","38704","pp5t65dfqxq","squirrel","z","<div style=""font-size:30pt;"">Computer viruses evolve.</div>","Evolution","T","F","Adaptation","false","T","true",""
"","825","html-keyboard-response","19","2.0.0","40046","pp5t65dfqxq","squirrel","z","<div style=""font-size:30pt;"">Individual organisms evolve.</div>","Evolution","F","T","Adaptation","false","T","false",""
"","2032","html-keyboard-response","20","2.0.0","42593","pp5t65dfqxq","squirrel","z","<div style=""font-size:30pt;"">Most organisms die before leaving offspring.</div>","Evolution","T","F","Selection","false","T","true",""
"","3764","html-keyboard-response","21","2.0.0","46870","pp5t65dfqxq","squirrel","z","<div style=""font-size:30pt;"">Humans are descended from chimpanzees.</div>","Evolution","F","T","Phylogeny","false","T","false",""
"","1687","html-keyboard-response","22","2.0.0","49063","pp5t65dfqxq","squirrel","z","<div style=""font-size:30pt;"">Most organisms live in temperate climates.</div>","Evolution","F","F","Selection","true","T","false",""
"","1466","html-keyboard-response","23","2.0.0","51043","pp5t65dfqxq","squirrel","z","<div style=""font-size:30pt;"">Evolution requires within-species variation.</div>","Evolution","T","F","Variation","false","T","true",""
"","1639","html-keyboard-response","24","2.0.0","53197","pp5t65dfqxq","squirrel","z","<div style=""font-size:30pt;"">Evolution requires differential survival.</div>","Evolution","T","T","Variation","true","T","true",""
"","713","html-keyboard-response","25","2.0.0","54426","pp5t65dfqxq","squirrel"," ","<p>The next 20 statements will be about <b>Waves</b>. Press any key to continue.</p>","","","","","","","",""
"","2559","html-keyboard-response","26","2.0.0","56988","pp5t65dfqxq","squirrel","m","<div style=""font-size:30pt;"">Shadows contain all colors of light.</div>","Waves","F","F","Light","true","F","true",""
"","1416","html-keyboard-response","27","2.0.0","58911","pp5t65dfqxq","squirrel","m","<div style=""font-size:30pt;"">Foam reflects sound.</div>","Waves","F","F","Reflection","true","F","true",""
"","2185","html-keyboard-response","28","2.0.0","61603","pp5t65dfqxq","squirrel","z","<div style=""font-size:30pt;"">White light contains all colors of light.</div>","Waves","T","F","Light","false","T","true",""
"","1283","html-keyboard-response","29","2.0.0","63393","pp5t65dfqxq","squirrel","m","<div style=""font-size:30pt;"">Red objects absorb red light.</div>","Waves","F","T","Color","false","F","true",""
"","1148","html-keyboard-response","30","2.0.0","65052","pp5t65dfqxq","squirrel","z","<div style=""font-size:30pt;"">Red objects reflect red light.</div>","Waves","T","T","Color","true","T","true",""
"","2042","html-keyboard-response","31","2.0.0","67601","pp5t65dfqxq","squirrel","z","<div style=""font-size:30pt;"">Sounds can be near or far.</div>","Waves","F","T","Sound","false","T","false",""
"","1172","html-keyboard-response","32","2.0.0","69279","pp5t65dfqxq","squirrel","t","<div style=""font-size:30pt;"">Press T if you are paying attention. Do not press z or m.</div>","Waves","T3","T3","AttentionCheck","true","T3","true",""
"","1041","html-keyboard-response","33","2.0.0","70837","pp5t65dfqxq","squirrel","z","<div style=""font-size:30pt;"">Sounds can be direct or reflected.</div>","Waves","T","F","Sound","false","T","true",""
"","924","html-keyboard-response","34","2.0.0","72273","pp5t65dfqxq","squirrel","m","<div style=""font-size:30pt;"">Sounds can be dead or alive.</div>","Waves","F","F","Sound","true","F","true",""
"","1042","html-keyboard-response","35","2.0.0","73819","pp5t65dfqxq","squirrel","z","<div style=""font-size:30pt;"">Sound travels through a vacuum.</div>","Waves","F","T","Propagation","false","T","false",""
"","1021","html-keyboard-response","36","2.0.0","75357","pp5t65dfqxq","squirrel","z","<div style=""font-size:30pt;"">Rainbows contain all colors of light.</div>","Waves","T","T","Light","true","T","true",""
"","842","html-keyboard-response","37","2.0.0","76707","pp5t65dfqxq","squirrel","z","<div style=""font-size:30pt;"">Mirrors reflect light.</div>","Waves","T","T","Reflection","true","T","true",""
"","2671","html-keyboard-response","38","2.0.0","79890","pp5t65dfqxq","squirrel","m","<div style=""font-size:30pt;"">Black objects reflect all colors of light.</div>","Waves","F","T","Light","false","F","true",""
"","832","html-keyboard-response","39","2.0.0","81236","pp5t65dfqxq","squirrel","z","<div style=""font-size:30pt;"">Prisms reflect light.</div>","Waves","F","T","Reflection","false","T","false",""
"","1466","html-keyboard-response","40","2.0.0","83213","pp5t65dfqxq","squirrel","z","<div style=""font-size:30pt;"">Sounds can be loud or quiet.</div>","Waves","T","T","Sound","true","T","true",""
"","1144","html-keyboard-response","41","2.0.0","84874","pp5t65dfqxq","squirrel","z","<div style=""font-size:30pt;"">Sound travels through foam.</div>","Waves","F","F","Propagation","true","T","false",""
"","1222","html-keyboard-response","42","2.0.0","86603","pp5t65dfqxq","squirrel","m","<div style=""font-size:30pt;"">Red objects reflect blue light.</div>","Waves","F","F","Color","true","F","true",""
"","929","html-keyboard-response","43","2.0.0","88035","pp5t65dfqxq","squirrel","z","<div style=""font-size:30pt;"">Sound travels through air.</div>","Waves","T","T","Propagation","true","T","true",""
"","1041","html-keyboard-response","44","2.0.0","89590","pp5t65dfqxq","squirrel","z","<div style=""font-size:30pt;"">Sound travels through metal.</div>","Waves","T","F","Propagation","false","T","true",""
"","2066","html-keyboard-response","45","2.0.0","92174","pp5t65dfqxq","squirrel","m","<div style=""font-size:30pt;"">Mirrors reflect sound.</div>","Waves","T","F","Reflection","false","F","false",""
"","1669","html-keyboard-response","46","2.0.0","94352","pp5t65dfqxq","squirrel","z","<div style=""font-size:30pt;"">Red objects absorb blue light.</div>","Waves","T","F","Color","false","T","true",""
"","692","html-keyboard-response","47","2.0.0","95552","pp5t65dfqxq","squirrel"," ","<p>The next 20 statements will be about <b>Astronomy</b>. Press any key to continue.</p>","","","","","","","",""
"","1142","html-keyboard-response","48","2.0.0","96695","pp5t65dfqxq","squirrel","t","<div style=""font-size:30pt;"">Press T if you are paying attention. Do not press z or m.</div>","Astronomy","T3","T3","AttentionCheck","true","T3","true",""
"","3494","html-keyboard-response","49","2.0.0","100692","pp5t65dfqxq","squirrel","m","<div style=""font-size:30pt;"">Phases of the moon are caused by changes in illumination.</div>","Astronomy","T","T","Lunar phase","true","F","false",""
"","1000","html-keyboard-response","50","2.0.0","102207","pp5t65dfqxq","squirrel","z","<div style=""font-size:30pt;"">The sun produces sound.</div>","Astronomy","F","F","Star","true","T","false",""
"","1535","html-keyboard-response","51","2.0.0","104249","pp5t65dfqxq","squirrel","z","<div style=""font-size:30pt;"">Planets are more massive than moons.</div>","Astronomy","T","T","Planet","true","T","true",""
"","2131","html-keyboard-response","52","2.0.0","106885","pp5t65dfqxq","squirrel","m","<div style=""font-size:30pt;"">The moon produces light.</div>","Astronomy","F","T","Star","false","F","true",""
"","1558","html-keyboard-response","53","2.0.0","108961","pp5t65dfqxq","squirrel","z","<div style=""font-size:30pt;"">The earth's rotation causes the seasons.</div>","Astronomy","F","F","Season","true","T","false",""
"","3163","html-keyboard-response","54","2.0.0","112632","pp5t65dfqxq","squirrel","z","<div style=""font-size:30pt;"">The sun produces light.</div>","Astronomy","T","T","Star","true","T","true",""
"","1334","html-keyboard-response","55","2.0.0","114472","pp5t65dfqxq","squirrel","m","<div style=""font-size:30pt;"">Asteroids are more massive than planets.</div>","Astronomy","F","F","Planet","true","F","true",""
"","1846","html-keyboard-response","56","2.0.0","116832","pp5t65dfqxq","squirrel","m","<div style=""font-size:30pt;"">Planets are more massive than stars.</div>","Astronomy","F","T","Planet","false","F","true",""
"","1043","html-keyboard-response","57","2.0.0","118381","pp5t65dfqxq","squirrel","m","<div style=""font-size:30pt;"">The sun revolves around the earth.</div>","Astronomy","F","T","Solar system","false","F","true",""
"","1505","html-keyboard-response","58","2.0.0","120395","pp5t65dfqxq","squirrel","m","<div style=""font-size:30pt;"">Phases of the moon are caused by clouds.</div>","Astronomy","F","F","Lunar phase","true","F","true",""
"","3867","html-keyboard-response","59","2.0.0","124775","pp5t65dfqxq","squirrel","z","<div style=""font-size:30pt;"">Phases of the moon are caused by the moon's orbit.</div>","Astronomy","T","F","Lunar phase","false","T","true",""
"","1411","html-keyboard-response","60","2.0.0","126693","pp5t65dfqxq","squirrel","z","<div style=""font-size:30pt;"">The earth's distance from the sun causes the seasons.</div>","Astronomy","F","T","Season","false","T","false",""
"","2824","html-keyboard-response","61","2.0.0","130022","pp5t65dfqxq","squirrel","m","<div style=""font-size:30pt;"">A change in overall sunlight causes the seasons.</div>","Astronomy","T","T","Season","true","F","false",""
"","808","html-keyboard-response","62","2.0.0","131334","pp5t65dfqxq","squirrel","z","<div style=""font-size:30pt;"">The earth's tilt causes the seasons.</div>","Astronomy","T","F","Season","false","T","true",""
"","1084","html-keyboard-response","63","2.0.0","132928","pp5t65dfqxq","squirrel","z","<div style=""font-size:30pt;"">The sun produces gravity.</div>","Astronomy","T","F","Star","false","T","true",""
"","1129","html-keyboard-response","64","2.0.0","134562","pp5t65dfqxq","squirrel","z","<div style=""font-size:30pt;"">The moon revolves around the earth.</div>","Astronomy","T","T","Solar system","true","T","true",""
"","1074","html-keyboard-response","65","2.0.0","136138","pp5t65dfqxq","squirrel","z","<div style=""font-size:30pt;"">The earth revolves around the sun.</div>","Astronomy","T","F","Solar system","false","T","true",""
"","1242","html-keyboard-response","66","2.0.0","137888","pp5t65dfqxq","squirrel","m","<div style=""font-size:30pt;"">The sun revolves around the moon.</div>","Astronomy","F","F","Solar system","true","F","true",""
"","1594","html-keyboard-response","67","2.0.0","139990","pp5t65dfqxq","squirrel","z","<div style=""font-size:30pt;"">Stars are more massive than planets.</div>","Astronomy","T","F","Planet","false","T","true",""
"","1550","html-keyboard-response","68","2.0.0","142049","pp5t65dfqxq","squirrel","z","<div style=""font-size:30pt;"">Phases of the moon are caused by the earth's shadow.</div>","Astronomy","F","T","Lunar phase","false","T","false",""
"","896","html-keyboard-response","69","2.0.0","143455","pp5t65dfqxq","squirrel"," ","<p>The next 20 statements will be about <b>Thermodynamics</b>. Press any key to continue.</p>","","","","","","","",""
"","1687","html-keyboard-response","70","2.0.0","145145","pp5t65dfqxq","squirrel","m","<div style=""font-size:30pt;"">Coats produce heat.</div>","Thermodynamics","F","T","Heat source","false","F","true",""
"","848","html-keyboard-response","71","2.0.0","146506","pp5t65dfqxq","squirrel","z","<div style=""font-size:30pt;"">Atoms have heat.</div>","Thermodynamics","F","T","Heat","false","T","false",""
"","902","html-keyboard-response","72","2.0.0","147923","pp5t65dfqxq","squirrel","m","<div style=""font-size:30pt;"">Rain produces heat.</div>","Thermodynamics","F","F","Heat source","true","F","true",""
"","1471","html-keyboard-response","73","2.0.0","149914","pp5t65dfqxq","squirrel","z","<div style=""font-size:30pt;"">Heat increases an object's size.</div>","Thermodynamics","T","F","Thermal expansion","false","T","true",""
"","1307","html-keyboard-response","74","2.0.0","151730","pp5t65dfqxq","squirrel","z","<div style=""font-size:30pt;"">Ice has a lower temperature than water.</div>","Thermodynamics","T","T","Temperature","true","T","true",""
"","3181","html-keyboard-response","75","2.0.0","155428","pp5t65dfqxq","squirrel","m","<div style=""font-size:30pt;"">Water transfers heat to steam.</div>","Thermodynamics","F","T","Heat transfer","false","F","true",""
"","1451","html-keyboard-response","76","2.0.0","157400","pp5t65dfqxq","squirrel","m","<div style=""font-size:30pt;"">Steam has a lower temperature than ice.</div>","Thermodynamics","F","F","Temperature","true","F","true",""
"","1710","html-keyboard-response","77","2.0.0","159630","pp5t65dfqxq","squirrel","z","<div style=""font-size:30pt;"">Cold objects transfer heat to even colder objects.</div>","Thermodynamics","T","F","Heat transfer","false","T","true",""
"","1677","html-keyboard-response","78","2.0.0","161820","pp5t65dfqxq","squirrel","z","<div style=""font-size:30pt;"">Pressure produces heat.</div>","Thermodynamics","T","F","Heat source","false","T","true",""
"","1703","html-keyboard-response","79","2.0.0","164035","pp5t65dfqxq","squirrel","m","<div style=""font-size:30pt;"">Two cups of ice have a lower temperature than one.</div>","Thermodynamics","F","T","Temperature","false","F","true",""
"","1166","html-keyboard-response","80","2.0.0","165712","pp5t65dfqxq","squirrel","t","<div style=""font-size:30pt;"">Press T if you are paying attention. Do not press z or m.</div>","Thermodynamics","T3","T3","AttentionCheck","true","T3","true",""
"","3854","html-keyboard-response","81","2.0.0","170068","pp5t65dfqxq","squirrel","z","<div style=""font-size:30pt;"">Boiling water has a lower temperature than steam.</div>","Thermodynamics","T","F","Temperature","false","T","true",""
"","1803","html-keyboard-response","82","2.0.0","172382","pp5t65dfqxq","squirrel","z","<div style=""font-size:30pt;"">Water transfers heat to ice.</div>","Thermodynamics","T","T","Heat transfer","true","T","true",""
"","1370","html-keyboard-response","83","2.0.0","174259","pp5t65dfqxq","squirrel","z","<div style=""font-size:30pt;"">Ice has heat.</div>","Thermodynamics","T","F","Heat","false","T","true",""
"","666","html-keyboard-response","84","2.0.0","175427","pp5t65dfqxq","squirrel","z","<div style=""font-size:30pt;"">The sun has heat.</div>","Thermodynamics","T","T","Heat","true","T","true",""
"","1306","html-keyboard-response","85","2.0.0","177239","pp5t65dfqxq","squirrel","z","<div style=""font-size:30pt;"">Heat increases an object's color.</div>","Thermodynamics","F","F","Thermal expansion","true","T","false",""
"","1465","html-keyboard-response","86","2.0.0","179211","pp5t65dfqxq","squirrel","z","<div style=""font-size:30pt;"">Heat increases an object's temperature.</div>","Thermodynamics","T","T","Thermal expansion","true","T","true",""
"","3296","html-keyboard-response","87","2.0.0","183017","pp5t65dfqxq","squirrel","m","<div style=""font-size:30pt;"">Gravity has heat.</div>","Thermodynamics","F","F","Heat","true","F","true",""
"","3861","html-keyboard-response","88","2.0.0","187382","pp5t65dfqxq","squirrel","m","<div style=""font-size:30pt;"">Heat increases an object's weight.</div>","Thermodynamics","F","T","Thermal expansion","false","F","true",""
"","1065","html-keyboard-response","89","2.0.0","188961","pp5t65dfqxq","squirrel","z","<div style=""font-size:30pt;"">Ovens produce heat.</div>","Thermodynamics","T","T","Heat source","true","T","true",""
"","2030","html-keyboard-response","90","2.0.0","191500","pp5t65dfqxq","squirrel","m","<div style=""font-size:30pt;"">Cold objects transfer heat to warm objects.</div>","Thermodynamics","F","F","Heat transfer","true","F","true",""
"","642","html-keyboard-response","91","2.0.0","192647","pp5t65dfqxq","squirrel"," ","<p>The next 20 statements will be about <b>Germs</b>. Press any key to continue.</p>","","","","","","","",""
"","1189","html-keyboard-response","92","2.0.0","193838","pp5t65dfqxq","squirrel","z","<div style=""font-size:30pt;"">Germs have DNA.</div>","Germs","T","F","Microbe","false","T","true",""
"","1206","html-keyboard-response","93","2.0.0","195550","pp5t65dfqxq","squirrel","z","<div style=""font-size:30pt;"">Being cold can make a person sick.</div>","Germs","F","T","Contagion","false","T","false",""
"","672","html-keyboard-response","94","2.0.0","196732","pp5t65dfqxq","squirrel","z","<div style=""font-size:30pt;"">Alcohol kills germs.</div>","Germs","T","T","Sterilization","true","T","true",""
"","1031","html-keyboard-response","95","2.0.0","198265","pp5t65dfqxq","squirrel","t","<div style=""font-size:30pt;"">Press T if you are paying attention. Do not press z or m.</div>","Germs","T3","T3","AttentionCheck","true","T3","true",""
"","757","html-keyboard-response","96","2.0.0","199539","pp5t65dfqxq","squirrel","m","<div style=""font-size:30pt;"">Kindness kills germs.</div>","Germs","F","F","Sterilization","true","F","true",""
"","951","html-keyboard-response","97","2.0.0","200996","pp5t65dfqxq","squirrel","m","<div style=""font-size:30pt;"">Water kills germs.</div>","Germs","F","T","Sterilization","false","F","true",""
"","1297","html-keyboard-response","98","2.0.0","202798","pp5t65dfqxq","squirrel","z","<div style=""font-size:30pt;"">Germs enter the body through the eyes.</div>","Germs","T","F","Infection","false","T","true",""
"","751","html-keyboard-response","99","2.0.0","204059","pp5t65dfqxq","squirrel","z","<div style=""font-size:30pt;"">Urine contains germs.</div>","Germs","F","T","Contamination","false","T","false",""
"","1131","html-keyboard-response","100","2.0.0","205707","pp5t65dfqxq","squirrel","z","<div style=""font-size:30pt;"">Being sneezed on can make a person sick.</div>","Germs","T","T","Contagion","true","T","true",""
"","787","html-keyboard-response","101","2.0.0","207004","pp5t65dfqxq","squirrel","m","<div style=""font-size:30pt;"">Sunshine contains germs.</div>","Germs","F","F","Contamination","true","F","true",""
"","712","html-keyboard-response","102","2.0.0","208238","pp5t65dfqxq","squirrel","m","<div style=""font-size:30pt;"">Germs have feelings.</div>","Germs","F","F","Microbe","true","F","true",""
"","907","html-keyboard-response","103","2.0.0","209656","pp5t65dfqxq","squirrel","z","<div style=""font-size:30pt;"">Germs enter the body through the skin.</div>","Germs","F","T","Infection","false","T","false",""
"","802","html-keyboard-response","104","2.0.0","210972","pp5t65dfqxq","squirrel","z","<div style=""font-size:30pt;"">Dish sponges contain germs.</div>","Germs","T","F","Contamination","false","T","true",""
"","875","html-keyboard-response","105","2.0.0","212355","pp5t65dfqxq","squirrel","m","<div style=""font-size:30pt;"">Germs have a shape.</div>","Germs","T","T","Microbe","true","F","false",""
"","733","html-keyboard-response","106","2.0.0","213592","pp5t65dfqxq","squirrel","z","<div style=""font-size:30pt;"">Heat kills germs.</div>","Germs","T","F","Sterilization","false","T","true",""
"","795","html-keyboard-response","107","2.0.0","214894","pp5t65dfqxq","squirrel","z","<div style=""font-size:30pt;"">Germs have an odor.</div>","Germs","F","T","Microbe","false","T","false",""
"","1208","html-keyboard-response","108","2.0.0","216617","pp5t65dfqxq","squirrel","z","<div style=""font-size:30pt;"">Being depressed can make a person sick.</div>","Germs","T","F","Contagion","false","T","true",""
"","717","html-keyboard-response","109","2.0.0","217845","pp5t65dfqxq","squirrel","m","<div style=""font-size:30pt;"">Being happy can make a person sick.</div>","Germs","F","F","Contagion","true","F","true",""
"","3165","html-keyboard-response","110","2.0.0","221522","pp5t65dfqxq","squirrel","m","<div style=""font-size:30pt;"">Germs enter the body through the hair.</div>","Germs","F","F","Infection","true","F","true",""
"","882","html-keyboard-response","111","2.0.0","222914","pp5t65dfqxq","squirrel","z","<div style=""font-size:30pt;"">Rotting meat contains germs.</div>","Germs","T","T","Contamination","true","T","true",""
"","876","html-keyboard-response","112","2.0.0","224316","pp5t65dfqxq","squirrel","z","<div style=""font-size:30pt;"">Germs enter the body through cuts.</div>","Germs","T","T","Infection","true","T","true",""
"","599","html-keyboard-response","113","2.0.0","225423","pp5t65dfqxq","squirrel"," ","<p>The next 20 statements will be about <b>Fractions</b>. Press any key to continue.</p>","","","","","","","",""
"","1467","html-keyboard-response","114","2.0.0","226892","pp5t65dfqxq","squirrel","m","<div style=""font-size:30pt;"">1/17 is greater than 1/9.</div>","Fractions","F","T","Ordering","false","F","true",""
"","946","html-keyboard-response","115","2.0.0","228346","pp5t65dfqxq","squirrel","z","<div style=""font-size:30pt;"">12/13 is greater than 1/13.</div>","Fractions","T","T","Ordering","true","T","true",""
"","841","html-keyboard-response","116","2.0.0","229701","pp5t65dfqxq","squirrel","m","<div style=""font-size:30pt;"">1/17 is greater than 16/17.</div>","Fractions","F","F","Ordering","true","F","true",""
"","1003","html-keyboard-response","117","2.0.0","231219","pp5t65dfqxq","squirrel","z","<div style=""font-size:30pt;"">There are numbers between 1/10 and 10/100.</div>","Fractions","F","T","Infinite density","false","T","false",""
"","895","html-keyboard-response","118","2.0.0","232627","pp5t65dfqxq","squirrel","m","<div style=""font-size:30pt;"">2/3 plus 2/4 is 2/7.</div>","Fractions","F","T","Addition","false","F","true",""
"","1330","html-keyboard-response","119","2.0.0","234466","pp5t65dfqxq","squirrel","z","<div style=""font-size:30pt;"">4 divided by 2/1 is 2.</div>","Fractions","T","T","Division","true","T","true",""
"","1137","html-keyboard-response","120","2.0.0","236108","pp5t65dfqxq","squirrel","z","<div style=""font-size:30pt;"">4 divided by 1/2 is 8.</div>","Fractions","T","F","Division","false","T","true",""
"","2382","html-keyboard-response","121","2.0.0","239003","pp5t65dfqxq","squirrel","m","<div style=""font-size:30pt;"">All fractions are expressible as integers.</div>","Fractions","F","F","Conversion","true","F","true",""
"","951","html-keyboard-response","122","2.0.0","240470","pp5t65dfqxq","squirrel","z","<div style=""font-size:30pt;"">There are numbers between 1/3 and 1/2.</div>","Fractions","T","F","Infinite density","false","T","true",""
"","816","html-keyboard-response","123","2.0.0","241796","pp5t65dfqxq","squirrel","z","<div style=""font-size:30pt;"">There are numbers between 1 and 3.</div>","Fractions","T","T","Infinite density","true","T","true",""
"","1307","html-keyboard-response","124","2.0.0","243617","pp5t65dfqxq","squirrel","m","<div style=""font-size:30pt;"">8 divided by 1/2 is 4.</div>","Fractions","F","T","Division","false","F","true",""
"","1108","html-keyboard-response","125","2.0.0","245231","pp5t65dfqxq","squirrel","t","<div style=""font-size:30pt;"">Press T if you are paying attention. Do not press z or m.</div>","Fractions","T3","T3","AttentionCheck","true","T3","true",""
"","1066","html-keyboard-response","126","2.0.0","246800","pp5t65dfqxq","squirrel","m","<div style=""font-size:30pt;"">1/3 plus 1/3 is 1/3.</div>","Fractions","F","F","Addition","true","F","true",""
"","1200","html-keyboard-response","127","2.0.0","248508","pp5t65dfqxq","squirrel","z","<div style=""font-size:30pt;"">1/13 is greater than 1/30.</div>","Fractions","T","F","Ordering","false","T","true",""
"","1375","html-keyboard-response","128","2.0.0","250390","pp5t65dfqxq","squirrel","z","<div style=""font-size:30pt;"">All fractions are expressible as decimals.</div>","Fractions","F","T","Conversion","false","T","false",""
"","1082","html-keyboard-response","129","2.0.0","251984","pp5t65dfqxq","squirrel","z","<div style=""font-size:30pt;"">1/10 plus 1/10 is 1/5.</div>","Fractions","T","F","Addition","false","T","true",""
"","944","html-keyboard-response","130","2.0.0","253442","pp5t65dfqxq","squirrel","m","<div style=""font-size:30pt;"">There are numbers between 10 and 10.</div>","Fractions","F","F","Infinite density","true","F","true",""
"","3125","html-keyboard-response","131","2.0.0","257074","pp5t65dfqxq","squirrel","m","<div style=""font-size:30pt;"">All decimals are expressible as fractions.</div>","Fractions","T","T","Conversion","true","F","false",""
"","1147","html-keyboard-response","132","2.0.0","258738","pp5t65dfqxq","squirrel","m","<div style=""font-size:30pt;"">8 divided by 2/1 is 3.</div>","Fractions","F","F","Division","true","F","true",""
"","874","html-keyboard-response","133","2.0.0","260113","pp5t65dfqxq","squirrel","z","<div style=""font-size:30pt;"">1/3 plus 1/3 is 2/3.</div>","Fractions","T","T","Addition","true","T","true",""
"","1083","html-keyboard-response","134","2.0.0","261699","pp5t65dfqxq","squirrel","z","<div style=""font-size:30pt;"">All integers are expressible as fractions.</div>","Fractions","T","F","Conversion","false","T","true",""
"","715","html-keyboard-response","135","2.0.0","262920","pp5t65dfqxq","squirrel"," ","<p>The next 20 statements will be about <b>Mechanics</b>. Press any key to continue.</p>","","","","","","","",""
"","3856","html-keyboard-response","136","2.0.0","266779","pp5t65dfqxq","squirrel","z","<div style=""font-size:30pt;"">Constant acceleration requires constant force.</div>","Mechanics","T","T","Acceleration","true","T","true",""
"","858","html-keyboard-response","137","2.0.0","268154","pp5t65dfqxq","squirrel","z","<div style=""font-size:30pt;"">A moving bullet loses speed.</div>","Mechanics","T","T","Velocity","true","T","true",""
"","820","html-keyboard-response","138","2.0.0","269476","pp5t65dfqxq","squirrel","z","<div style=""font-size:30pt;"">Forces can be balanced or unbalanced.</div>","Mechanics","T","F","Force","false","T","true",""
"","1435","html-keyboard-response","139","2.0.0","271431","pp5t65dfqxq","squirrel","m","<div style=""font-size:30pt;"">Bright objects fall through air faster than dark objects.</div>","Mechanics","F","F","Gravity","true","F","true",""
"","1702","html-keyboard-response","140","2.0.0","273642","pp5t65dfqxq","squirrel","z","<div style=""font-size:30pt;"">Constant force can yield constant rest.</div>","Mechanics","T","F","Acceleration","false","T","true",""
"","7711","html-keyboard-response","141","2.0.0","281864","pp5t65dfqxq","squirrel","z","<div style=""font-size:30pt;"">Constant motion requires constant force.</div>","Mechanics","F","T","Acceleration","false","T","false",""
"","1046","html-keyboard-response","142","2.0.0","283420","pp5t65dfqxq","squirrel","z","<div style=""font-size:30pt;"">Pointy objects fall through air faster than flat objects.</div>","Mechanics","T","F","Gravity","false","T","true",""
"","1745","html-keyboard-response","143","2.0.0","285682","pp5t65dfqxq","squirrel","m","<div style=""font-size:30pt;"">Color can be transferred from one object to another.</div>","Mechanics","F","F","Momentum","true","F","true",""
"","2764","html-keyboard-response","144","2.0.0","288948","pp5t65dfqxq","squirrel","m","<div style=""font-size:30pt;"">Constant speed requires constant acceleration.</div>","Mechanics","F","F","Acceleration","true","F","true",""
"","1095","html-keyboard-response","145","2.0.0","290549","pp5t65dfqxq","squirrel","t","<div style=""font-size:30pt;"">Press T if you are paying attention. Do not press z or m.</div>","Mechanics","T3","T3","AttentionCheck","true","T3","true",""
"","1740","html-keyboard-response","146","2.0.0","292804","pp5t65dfqxq","squirrel","z","<div style=""font-size:30pt;"">A moving bullet loses height.</div>","Mechanics","T","F","Velocity","false","T","true",""
"","1772","html-keyboard-response","147","2.0.0","295100","pp5t65dfqxq","squirrel","m","<div style=""font-size:30pt;"">A moving bullet loses force.</div>","Mechanics","F","T","Velocity","false","F","true",""
"","2872","html-keyboard-response","148","2.0.0","298492","pp5t65dfqxq","squirrel","z","<div style=""font-size:30pt;"">Anvils fall through air faster than feathers.</div>","Mechanics","T","T","Gravity","true","T","true",""
"","1924","html-keyboard-response","149","2.0.0","300935","pp5t65dfqxq","squirrel","m","<div style=""font-size:30pt;"">A moving bullet loses weight.</div>","Mechanics","F","F","Velocity","true","F","true",""
"","1125","html-keyboard-response","150","2.0.0","302577","pp5t65dfqxq","squirrel","z","<div style=""font-size:30pt;"">Momentum can be transferred from one object to another.</div>","Mechanics","T","T","Momentum","true","T","true",""
"","930","html-keyboard-response","151","2.0.0","304021","pp5t65dfqxq","squirrel","z","<div style=""font-size:30pt;"">Energy can be transferred from one object to another.</div>","Mechanics","T","F","Momentum","false","T","true",""
"","1286","html-keyboard-response","152","2.0.0","305816","pp5t65dfqxq","squirrel","z","<div style=""font-size:30pt;"">Forces can be transferred from one object to another.</div>","Mechanics","F","T","Momentum","false","T","false",""
"","5471","html-keyboard-response","153","2.0.0","311802","pp5t65dfqxq","squirrel","m","<div style=""font-size:30pt;"">Heavy balls fall through air faster than light balls.</div>","Mechanics","F","T","Gravity","false","F","true",""
"","1031","html-keyboard-response","154","2.0.0","313342","pp5t65dfqxq","squirrel","m","<div style=""font-size:30pt;"">Forces can be male or female.</div>","Mechanics","F","F","Force","true","F","true",""
"","933","html-keyboard-response","155","2.0.0","314779","pp5t65dfqxq","squirrel","m","<div style=""font-size:30pt;"">Forces can be straight or curved.</div>","Mechanics","F","T","Force","false","F","true",""
"","741","html-keyboard-response","156","2.0.0","316036","pp5t65dfqxq","squirrel","z","<div style=""font-size:30pt;"">Forces can be strong or weak.</div>","Mechanics","T","T","Force","true","T","true",""
"","1747","html-keyboard-response","157","2.0.0","318297","pp5t65dfqxq","squirrel"," ","
      <p>Thank you for completing this portion of the 
      experiment. We now have a few  questions for you.</p>
      <p>Press any key to proceed, and click submit once you are 
      done with the questions. Thanks! </p>
      ","","","","","","","",""
"","3354","survey-multi-choice","158","null","321654","pp5t65dfqxq","squirrel","{""grade"":""4th Year"",""gender"":""Female""}","","","","","","","","","[0,1]"
"","22388","survey","159","4.0.0","344093","pp5t65dfqxq","squirrel","{""age"":21,""major"":""CBN"",""experiment_topic"":""whether we respond differently to naive theories than scientific theories"",""technical_difficulties"":""no""}","","","","","","","","",""
