"success","rt","trial_type","trial_index","plugin_version","time_elapsed","random_id","participant_id","response","stimulus","category","correct_response","naive_theory","concept","is_consistent","response_tf","correct","question_order"
"true","2592","fullscreen","0","null","3596","pqwxbtzgbf6","rabbit","","","","","","","","","",""
"","3622","survey-text","1","2.0.0","7223","pqwxbtzgbf6","rabbit","{""participant_id"":""rabbit""}","","","","","","","","",""
"","10175","html-keyboard-response","2","2.0.0","17399","pqwxbtzgbf6","rabbit"," ","<p>Welcome to the experiment.<br><br>You will see 140 statements about various topics.<br><br>Please read the statements and respond with whether you think they are <b>true (Z key)</b> or <b>false (M key)</b> as quickly as possible!<br><br>Press any key to begin.</p>","","","","","","","",""
"","2039","html-keyboard-response","3","2.0.0","19439","pqwxbtzgbf6","rabbit"," ","<p>The next 20 statements will be about <b>Fractions</b>. Press any key to continue.</p>","","","","","","","",""
"","3333","html-keyboard-response","4","2.0.0","22774","pqwxbtzgbf6","rabbit","z","<div style=""font-size:30pt;"">There are numbers between 10 and 10.</div>","Fractions","F","F","Infinite density","true","T","false",""
"","2955","html-keyboard-response","5","2.0.0","26232","pqwxbtzgbf6","rabbit","z","<div style=""font-size:30pt;"">1/10 plus 1/10 is 1/5.</div>","Fractions","T","F","Addition","false","T","true",""
"","1604","html-keyboard-response","6","2.0.0","28339","pqwxbtzgbf6","rabbit","z","<div style=""font-size:30pt;"">1/3 plus 1/3 is 2/3.</div>","Fractions","T","T","Addition","true","T","true",""
"","2404","html-keyboard-response","7","2.0.0","31245","pqwxbtzgbf6","rabbit","m","<div style=""font-size:30pt;"">1/17 is greater than 16/17.</div>","Fractions","F","F","Ordering","true","F","true",""
"","5119","html-keyboard-response","8","2.0.0","36866","pqwxbtzgbf6","rabbit","m","<div style=""font-size:30pt;"">There are numbers between 1/10 and 10/100.</div>","Fractions","F","T","Infinite density","false","F","true",""
"","6468","html-keyboard-response","9","2.0.0","43837","pqwxbtzgbf6","rabbit","m","<div style=""font-size:30pt;"">8 divided by 2/1 is 3.</div>","Fractions","F","F","Division","true","F","true",""
"","1874","html-keyboard-response","10","2.0.0","46213","pqwxbtzgbf6","rabbit","z","<div style=""font-size:30pt;"">There are numbers between 1 and 3.</div>","Fractions","T","T","Infinite density","true","T","true",""
"","6056","html-keyboard-response","11","2.0.0","52772","pqwxbtzgbf6","rabbit","z","<div style=""font-size:30pt;"">All fractions are expressible as integers.</div>","Fractions","F","F","Conversion","true","T","false",""
"","3299","html-keyboard-response","12","2.0.0","56573","pqwxbtzgbf6","rabbit","z","<div style=""font-size:30pt;"">1/13 is greater than 1/30.</div>","Fractions","T","F","Ordering","false","T","true",""
"","45336","html-keyboard-response","13","2.0.0","102411","pqwxbtzgbf6","rabbit","z","<div style=""font-size:30pt;"">4 divided by 2/1 is 2.</div>","Fractions","T","T","Division","true","T","true",""
"","7574","html-keyboard-response","14","2.0.0","110487","pqwxbtzgbf6","rabbit","m","<div style=""font-size:30pt;"">2/3 plus 2/4 is 2/7.</div>","Fractions","F","T","Addition","false","F","true",""
"","5830","html-keyboard-response","15","2.0.0","116819","pqwxbtzgbf6","rabbit","z","<div style=""font-size:30pt;"">4 divided by 1/2 is 8.</div>","Fractions","T","F","Division","false","T","true",""
"","2656","html-keyboard-response","16","2.0.0","119977","pqwxbtzgbf6","rabbit","m","<div style=""font-size:30pt;"">1/3 plus 1/3 is 1/3.</div>","Fractions","F","F","Addition","true","F","true",""
"","3593","html-keyboard-response","17","2.0.0","124073","pqwxbtzgbf6","rabbit","z","<div style=""font-size:30pt;"">12/13 is greater than 1/13.</div>","Fractions","T","T","Ordering","true","T","true",""
"","6115","html-keyboard-response","18","2.0.0","130690","pqwxbtzgbf6","rabbit","z","<div style=""font-size:30pt;"">There are numbers between 1/3 and 1/2.</div>","Fractions","T","F","Infinite density","false","T","true",""
"","2824","html-keyboard-response","19","2.0.0","134016","pqwxbtzgbf6","rabbit","z","<div style=""font-size:30pt;"">All integers are expressible as fractions.</div>","Fractions","T","F","Conversion","false","T","true",""
"","3161","html-keyboard-response","20","2.0.0","137680","pqwxbtzgbf6","rabbit","m","<div style=""font-size:30pt;"">1/17 is greater than 1/9.</div>","Fractions","F","T","Ordering","false","F","true",""
"","7723","html-keyboard-response","21","2.0.0","145905","pqwxbtzgbf6","rabbit","z","<div style=""font-size:30pt;"">All fractions are expressible as decimals.</div>","Fractions","F","T","Conversion","false","T","false",""
"","3808","html-keyboard-response","22","2.0.0","150215","pqwxbtzgbf6","rabbit","t","<div style=""font-size:30pt;"">Press T if you are paying attention. Do not press z or m.</div>","Fractions","T3","T3","AttentionCheck","true","T3","true",""
"","4570","html-keyboard-response","23","2.0.0","155287","pqwxbtzgbf6","rabbit","m","<div style=""font-size:30pt;"">8 divided by 1/2 is 4.</div>","Fractions","F","T","Division","false","F","true",""
"","7007","html-keyboard-response","24","2.0.0","162796","pqwxbtzgbf6","rabbit","z","<div style=""font-size:30pt;"">All decimals are expressible as fractions.</div>","Fractions","T","T","Conversion","true","T","true",""
"","1806","html-keyboard-response","25","2.0.0","165105","pqwxbtzgbf6","rabbit"," ","<p>The next 20 statements will be about <b>Genetics</b>. Press any key to continue.</p>","","","","","","","",""
"","6643","html-keyboard-response","26","2.0.0","171749","pqwxbtzgbf6","rabbit","m","<div style=""font-size:30pt;"">Immunity to chickenpox is heritable.</div>","Genetics","F","T","Heritability","false","F","true",""
"","4303","html-keyboard-response","27","2.0.0","176555","pqwxbtzgbf6","rabbit","z","<div style=""font-size:30pt;"">Genes that code for eye color can be found in the eye.</div>","Genetics","T","T","Expression","true","T","true",""
"","2790","html-keyboard-response","28","2.0.0","179847","pqwxbtzgbf6","rabbit","z","<div style=""font-size:30pt;"">Two blue-eyed parents could have a brown-eyed baby.</div>","Genetics","F","F","Dominance","true","T","false",""
"","3035","html-keyboard-response","29","2.0.0","183384","pqwxbtzgbf6","rabbit","m","<div style=""font-size:30pt;"">Genes that code for eye color can be found in tears.</div>","Genetics","F","T","Expression","false","F","true",""
"","3144","html-keyboard-response","30","2.0.0","187031","pqwxbtzgbf6","rabbit","z","<div style=""font-size:30pt;"">Two brown-eyed parents could have a brown-eyed baby.</div>","Genetics","T","T","Dominance","true","T","true",""
"","4940","html-keyboard-response","31","2.0.0","192473","pqwxbtzgbf6","rabbit","t","<div style=""font-size:30pt;"">Press T if you are paying attention. Do not press z or m.</div>","Genetics","T3","T3","AttentionCheck","true","T3","true",""
"","5495","html-keyboard-response","32","2.0.0","198470","pqwxbtzgbf6","rabbit","z","<div style=""font-size:30pt;"">Humans have more chromosomes than mosquitoes.</div>","Genetics","T","T","Chromosome","true","T","true",""
"","3717","html-keyboard-response","33","2.0.0","202690","pqwxbtzgbf6","rabbit","z","<div style=""font-size:30pt;"">Viruses can change one's genome.</div>","Genetics","T","F","Mutation","false","T","true",""
"","5786","html-keyboard-response","34","2.0.0","208978","pqwxbtzgbf6","rabbit","m","<div style=""font-size:30pt;"">Pierced ears are heritable.</div>","Genetics","F","F","Heritability","true","F","true",""
"","1946","html-keyboard-response","35","2.0.0","211426","pqwxbtzgbf6","rabbit","z","<div style=""font-size:30pt;"">Two brown-eyed parents could have a blue-eyed baby.</div>","Genetics","T","F","Dominance","false","T","true",""
"","2887","html-keyboard-response","36","2.0.0","214815","pqwxbtzgbf6","rabbit","m","<div style=""font-size:30pt;"">Genes that code for eye color can be found in hair.</div>","Genetics","F","F","Expression","true","F","true",""
"","2877","html-keyboard-response","37","2.0.0","218194","pqwxbtzgbf6","rabbit","m","<div style=""font-size:30pt;"">Sunscreen can change one's genome.</div>","Genetics","F","F","Mutation","true","F","true",""
"","12065","html-keyboard-response","38","2.0.0","230761","pqwxbtzgbf6","rabbit","m","<div style=""font-size:30pt;"">A blue-eyed baby must have two blue-eyed parents.</div>","Genetics","F","T","Dominance","false","F","true",""
"","2260","html-keyboard-response","39","2.0.0","233523","pqwxbtzgbf6","rabbit","z","<div style=""font-size:30pt;"">Radiation can change one's genome.</div>","Genetics","T","T","Mutation","true","T","true",""
"","4643","html-keyboard-response","40","2.0.0","238668","pqwxbtzgbf6","rabbit","z","<div style=""font-size:30pt;"">Men have more chromosomes than women.</div>","Genetics","F","F","Chromosome","true","T","false",""
"","2595","html-keyboard-response","41","2.0.0","241766","pqwxbtzgbf6","rabbit","m","<div style=""font-size:30pt;"">Adults have more chromosomes than children.</div>","Genetics","F","T","Chromosome","false","F","true",""
"","1969","html-keyboard-response","42","2.0.0","244237","pqwxbtzgbf6","rabbit","m","<div style=""font-size:30pt;"">Intelligence is heritable.</div>","Genetics","T","F","Heritability","false","F","false",""
"","1267","html-keyboard-response","43","2.0.0","246005","pqwxbtzgbf6","rabbit","m","<div style=""font-size:30pt;"">Skin cells have more chromosomes than egg cells.</div>","Genetics","T","F","Chromosome","false","F","false",""
"","3407","html-keyboard-response","44","2.0.0","249914","pqwxbtzgbf6","rabbit","z","<div style=""font-size:30pt;"">Hair color is heritable.</div>","Genetics","T","T","Heritability","true","T","true",""
"","2910","html-keyboard-response","45","2.0.0","253326","pqwxbtzgbf6","rabbit","m","<div style=""font-size:30pt;"">Genes that code for eye color can be found in the liver.</div>","Genetics","T","F","Expression","false","F","false",""
"","2213","html-keyboard-response","46","2.0.0","256041","pqwxbtzgbf6","rabbit","m","<div style=""font-size:30pt;"">Exercise can change one's genome.</div>","Genetics","F","T","Mutation","false","F","true",""
"","1038","html-keyboard-response","47","2.0.0","257581","pqwxbtzgbf6","rabbit"," ","<p>The next 20 statements will be about <b>Germs</b>. Press any key to continue.</p>","","","","","","","",""
"","1505","html-keyboard-response","48","2.0.0","259087","pqwxbtzgbf6","rabbit","z","<div style=""font-size:30pt;"">Alcohol kills germs.</div>","Germs","T","T","Sterilization","true","T","true",""
"","2118","html-keyboard-response","49","2.0.0","261707","pqwxbtzgbf6","rabbit","m","<div style=""font-size:30pt;"">Dish sponges contain germs.</div>","Germs","T","F","Contamination","false","F","false",""
"","1836","html-keyboard-response","50","2.0.0","264045","pqwxbtzgbf6","rabbit","z","<div style=""font-size:30pt;"">Sunshine contains germs.</div>","Germs","F","F","Contamination","true","T","false",""
"","1268","html-keyboard-response","51","2.0.0","265815","pqwxbtzgbf6","rabbit","m","<div style=""font-size:30pt;"">Germs have feelings.</div>","Germs","F","F","Microbe","true","F","true",""
"","4470","html-keyboard-response","52","2.0.0","270787","pqwxbtzgbf6","rabbit","m","<div style=""font-size:30pt;"">Being cold can make a person sick.</div>","Germs","F","T","Contagion","false","F","true",""
"","1545","html-keyboard-response","53","2.0.0","272834","pqwxbtzgbf6","rabbit","t","<div style=""font-size:30pt;"">Press T if you are paying attention. Do not press z or m.</div>","Germs","T3","T3","AttentionCheck","true","T3","true",""
"","2301","html-keyboard-response","54","2.0.0","275638","pqwxbtzgbf6","rabbit","z","<div style=""font-size:30pt;"">Germs enter the body through the skin.</div>","Germs","F","T","Infection","false","T","false",""
"","2018","html-keyboard-response","55","2.0.0","278158","pqwxbtzgbf6","rabbit","z","<div style=""font-size:30pt;"">Being depressed can make a person sick.</div>","Germs","T","F","Contagion","false","T","true",""
"","1567","html-keyboard-response","56","2.0.0","280227","pqwxbtzgbf6","rabbit","z","<div style=""font-size:30pt;"">Urine contains germs.</div>","Germs","F","T","Contamination","false","T","false",""
"","1172","html-keyboard-response","57","2.0.0","281900","pqwxbtzgbf6","rabbit","m","<div style=""font-size:30pt;"">Water kills germs.</div>","Germs","F","T","Sterilization","false","F","true",""
"","2587","html-keyboard-response","58","2.0.0","284989","pqwxbtzgbf6","rabbit","m","<div style=""font-size:30pt;"">Germs have DNA.</div>","Germs","T","F","Microbe","false","F","false",""
"","1235","html-keyboard-response","59","2.0.0","286725","pqwxbtzgbf6","rabbit","z","<div style=""font-size:30pt;"">Germs have a shape.</div>","Germs","T","T","Microbe","true","T","true",""
"","1861","html-keyboard-response","60","2.0.0","289088","pqwxbtzgbf6","rabbit","z","<div style=""font-size:30pt;"">Germs enter the body through cuts.</div>","Germs","T","T","Infection","true","T","true",""
"","1584","html-keyboard-response","61","2.0.0","291175","pqwxbtzgbf6","rabbit","z","<div style=""font-size:30pt;"">Germs enter the body through the eyes.</div>","Germs","T","F","Infection","false","T","true",""
"","1267","html-keyboard-response","62","2.0.0","292945","pqwxbtzgbf6","rabbit","z","<div style=""font-size:30pt;"">Rotting meat contains germs.</div>","Germs","T","T","Contamination","true","T","true",""
"","1496","html-keyboard-response","63","2.0.0","294943","pqwxbtzgbf6","rabbit","z","<div style=""font-size:30pt;"">Heat kills germs.</div>","Germs","T","F","Sterilization","false","T","true",""
"","1458","html-keyboard-response","64","2.0.0","296902","pqwxbtzgbf6","rabbit","z","<div style=""font-size:30pt;"">Germs have an odor.</div>","Germs","F","T","Microbe","false","T","false",""
"","1655","html-keyboard-response","65","2.0.0","299059","pqwxbtzgbf6","rabbit","m","<div style=""font-size:30pt;"">Being happy can make a person sick.</div>","Germs","F","F","Contagion","true","F","true",""
"","22804","html-keyboard-response","66","2.0.0","322364","pqwxbtzgbf6","rabbit","m","<div style=""font-size:30pt;"">Germs enter the body through the hair.</div>","Germs","F","F","Infection","true","F","true",""
"","2167","html-keyboard-response","67","2.0.0","325034","pqwxbtzgbf6","rabbit","z","<div style=""font-size:30pt;"">Being sneezed on can make a person sick.</div>","Germs","T","T","Contagion","true","T","true",""
"","1245","html-keyboard-response","68","2.0.0","326781","pqwxbtzgbf6","rabbit","m","<div style=""font-size:30pt;"">Kindness kills germs.</div>","Germs","F","F","Sterilization","true","F","true",""
"","1828","html-keyboard-response","69","2.0.0","329110","pqwxbtzgbf6","rabbit"," ","<p>The next 20 statements will be about <b>Mechanics</b>. Press any key to continue.</p>","","","","","","","",""
"","2353","html-keyboard-response","70","2.0.0","331464","pqwxbtzgbf6","rabbit","z","<div style=""font-size:30pt;"">Momentum can be transferred from one object to another.</div>","Mechanics","T","T","Momentum","true","T","true",""
"","1855","html-keyboard-response","71","2.0.0","333822","pqwxbtzgbf6","rabbit","m","<div style=""font-size:30pt;"">A moving bullet loses weight.</div>","Mechanics","F","F","Velocity","true","F","true",""
"","4398","html-keyboard-response","72","2.0.0","338722","pqwxbtzgbf6","rabbit","m","<div style=""font-size:30pt;"">Bright objects fall through air faster than dark objects.</div>","Mechanics","F","F","Gravity","true","F","true",""
"","2234","html-keyboard-response","73","2.0.0","341459","pqwxbtzgbf6","rabbit","z","<div style=""font-size:30pt;"">Color can be transferred from one object to another.</div>","Mechanics","F","F","Momentum","true","T","false",""
"","2620","html-keyboard-response","74","2.0.0","344581","pqwxbtzgbf6","rabbit","m","<div style=""font-size:30pt;"">Forces can be male or female.</div>","Mechanics","F","F","Force","true","F","true",""
"","13336","html-keyboard-response","75","2.0.0","358420","pqwxbtzgbf6","rabbit","m","<div style=""font-size:30pt;"">Constant force can yield constant rest.</div>","Mechanics","T","F","Acceleration","false","F","false",""
"","2524","html-keyboard-response","76","2.0.0","361446","pqwxbtzgbf6","rabbit","z","<div style=""font-size:30pt;"">Energy can be transferred from one object to another.</div>","Mechanics","T","F","Momentum","false","T","true",""
"","1402","html-keyboard-response","77","2.0.0","363350","pqwxbtzgbf6","rabbit","t","<div style=""font-size:30pt;"">Press T if you are paying attention. Do not press z or m.</div>","Mechanics","T3","T3","AttentionCheck","true","T3","true",""
"","4866","html-keyboard-response","78","2.0.0","368719","pqwxbtzgbf6","rabbit","z","<div style=""font-size:30pt;"">Pointy objects fall through air faster than flat objects.</div>","Mechanics","T","F","Gravity","false","T","true",""
"","1398","html-keyboard-response","79","2.0.0","370619","pqwxbtzgbf6","rabbit","z","<div style=""font-size:30pt;"">Forces can be strong or weak.</div>","Mechanics","T","T","Force","true","T","true",""
"","1133","html-keyboard-response","80","2.0.0","372255","pqwxbtzgbf6","rabbit","z","<div style=""font-size:30pt;"">Forces can be balanced or unbalanced.</div>","Mechanics","T","F","Force","false","T","true",""
"","1372","html-keyboard-response","81","2.0.0","374129","pqwxbtzgbf6","rabbit","z","<div style=""font-size:30pt;"">Forces can be straight or curved.</div>","Mechanics","F","T","Force","false","T","false",""
"","2384","html-keyboard-response","82","2.0.0","377015","pqwxbtzgbf6","rabbit","z","<div style=""font-size:30pt;"">Heavy balls fall through air faster than light balls.</div>","Mechanics","F","T","Gravity","false","T","false",""
"","2586","html-keyboard-response","83","2.0.0","380103","pqwxbtzgbf6","rabbit","z","<div style=""font-size:30pt;"">A moving bullet loses speed.</div>","Mechanics","T","T","Velocity","true","T","true",""
"","1517","html-keyboard-response","84","2.0.0","382122","pqwxbtzgbf6","rabbit","z","<div style=""font-size:30pt;"">A moving bullet loses height.</div>","Mechanics","T","F","Velocity","false","T","true",""
"","6410","html-keyboard-response","85","2.0.0","389034","pqwxbtzgbf6","rabbit","m","<div style=""font-size:30pt;"">Constant motion requires constant force.</div>","Mechanics","F","T","Acceleration","false","F","true",""
"","3341","html-keyboard-response","86","2.0.0","392877","pqwxbtzgbf6","rabbit","z","<div style=""font-size:30pt;"">Constant speed requires constant acceleration.</div>","Mechanics","F","F","Acceleration","true","T","false",""
"","2659","html-keyboard-response","87","2.0.0","396038","pqwxbtzgbf6","rabbit","m","<div style=""font-size:30pt;"">A moving bullet loses force.</div>","Mechanics","F","T","Velocity","false","F","true",""
"","3153","html-keyboard-response","88","2.0.0","399694","pqwxbtzgbf6","rabbit","z","<div style=""font-size:30pt;"">Constant acceleration requires constant force.</div>","Mechanics","T","T","Acceleration","true","T","true",""
"","876","html-keyboard-response","89","2.0.0","401073","pqwxbtzgbf6","rabbit","m","<div style=""font-size:30pt;"">Forces can be transferred from one object to another.</div>","Mechanics","F","T","Momentum","false","F","true",""
"","899","html-keyboard-response","90","2.0.0","402475","pqwxbtzgbf6","rabbit","z","<div style=""font-size:30pt;"">Anvils fall through air faster than feathers.</div>","Mechanics","T","T","Gravity","true","T","true",""
"","1944","html-keyboard-response","91","2.0.0","404921","pqwxbtzgbf6","rabbit"," ","<p>The next 20 statements will be about <b>Thermodynamics</b>. Press any key to continue.</p>","","","","","","","",""
"","2528","html-keyboard-response","92","2.0.0","407450","pqwxbtzgbf6","rabbit","m","<div style=""font-size:30pt;"">Atoms have heat.</div>","Thermodynamics","F","T","Heat","false","F","true",""
"","1454","html-keyboard-response","93","2.0.0","409406","pqwxbtzgbf6","rabbit","m","<div style=""font-size:30pt;"">Gravity has heat.</div>","Thermodynamics","F","F","Heat","true","F","true",""
"","94104","html-keyboard-response","94","2.0.0","504012","pqwxbtzgbf6","rabbit","m","<div style=""font-size:30pt;"">Ovens produce heat.</div>","Thermodynamics","T","T","Heat source","true","F","false",""
"","8555","html-keyboard-response","95","2.0.0","513070","pqwxbtzgbf6","rabbit","z","<div style=""font-size:30pt;"">Cold objects transfer heat to even colder objects.</div>","Thermodynamics","T","F","Heat transfer","false","T","true",""
"","2911","html-keyboard-response","96","2.0.0","516483","pqwxbtzgbf6","rabbit","z","<div style=""font-size:30pt;"">Pressure produces heat.</div>","Thermodynamics","T","F","Heat source","false","T","true",""
"","3523","html-keyboard-response","97","2.0.0","520508","pqwxbtzgbf6","rabbit","m","<div style=""font-size:30pt;"">Heat increases an object's size.</div>","Thermodynamics","T","F","Thermal expansion","false","F","false",""
"","1816","html-keyboard-response","98","2.0.0","522827","pqwxbtzgbf6","rabbit","m","<div style=""font-size:30pt;"">Coats produce heat.</div>","Thermodynamics","F","T","Heat source","false","F","true",""
"","1010","html-keyboard-response","99","2.0.0","524339","pqwxbtzgbf6","rabbit","m","<div style=""font-size:30pt;"">Rain produces heat.</div>","Thermodynamics","F","F","Heat source","true","F","true",""
"","1686","html-keyboard-response","100","2.0.0","526526","pqwxbtzgbf6","rabbit","m","<div style=""font-size:30pt;"">Heat increases an object's weight.</div>","Thermodynamics","F","T","Thermal expansion","false","F","true",""
"","5360","html-keyboard-response","101","2.0.0","532388","pqwxbtzgbf6","rabbit","m","<div style=""font-size:30pt;"">Two cups of ice have a lower temperature than one.</div>","Thermodynamics","F","T","Temperature","false","F","true",""
"","48787","html-keyboard-response","102","2.0.0","581677","pqwxbtzgbf6","rabbit","m","<div style=""font-size:30pt;"">Water transfers heat to steam.</div>","Thermodynamics","F","T","Heat transfer","false","F","true",""
"","10143","html-keyboard-response","103","2.0.0","592322","pqwxbtzgbf6","rabbit","z","<div style=""font-size:30pt;"">The sun has heat.</div>","Thermodynamics","T","T","Heat","true","T","true",""
"","1387","html-keyboard-response","104","2.0.0","594211","pqwxbtzgbf6","rabbit","m","<div style=""font-size:30pt;"">Cold objects transfer heat to warm objects.</div>","Thermodynamics","F","F","Heat transfer","true","F","true",""
"","1738","html-keyboard-response","105","2.0.0","596451","pqwxbtzgbf6","rabbit","m","<div style=""font-size:30pt;"">Heat increases an object's color.</div>","Thermodynamics","F","F","Thermal expansion","true","F","true",""
"","1241","html-keyboard-response","106","2.0.0","598194","pqwxbtzgbf6","rabbit","t","<div style=""font-size:30pt;"">Press T if you are paying attention. Do not press z or m.</div>","Thermodynamics","T3","T3","AttentionCheck","true","T3","true",""
"","5890","html-keyboard-response","107","2.0.0","604586","pqwxbtzgbf6","rabbit","m","<div style=""font-size:30pt;"">Boiling water has a lower temperature than steam.</div>","Thermodynamics","T","F","Temperature","false","F","false",""
"","2357","html-keyboard-response","108","2.0.0","607445","pqwxbtzgbf6","rabbit","m","<div style=""font-size:30pt;"">Steam has a lower temperature than ice.</div>","Thermodynamics","F","F","Temperature","true","F","true",""
"","2588","html-keyboard-response","109","2.0.0","610535","pqwxbtzgbf6","rabbit","z","<div style=""font-size:30pt;"">Ice has a lower temperature than water.</div>","Thermodynamics","T","T","Temperature","true","T","true",""
"","5797","html-keyboard-response","110","2.0.0","616836","pqwxbtzgbf6","rabbit","z","<div style=""font-size:30pt;"">Water transfers heat to ice.</div>","Thermodynamics","T","T","Heat transfer","true","T","true",""
"","1770","html-keyboard-response","111","2.0.0","619109","pqwxbtzgbf6","rabbit","z","<div style=""font-size:30pt;"">Heat increases an object's temperature.</div>","Thermodynamics","T","T","Thermal expansion","true","T","true",""
"","1316","html-keyboard-response","112","2.0.0","620926","pqwxbtzgbf6","rabbit","m","<div style=""font-size:30pt;"">Ice has heat.</div>","Thermodynamics","T","F","Heat","false","F","false",""
"","1055","html-keyboard-response","113","2.0.0","622483","pqwxbtzgbf6","rabbit"," ","<p>The next 20 statements will be about <b>Evolution</b>. Press any key to continue.</p>","","","","","","","",""
"","2777","html-keyboard-response","114","2.0.0","625261","pqwxbtzgbf6","rabbit","z","<div style=""font-size:30pt;"">Evolution requires long periods of time.</div>","Evolution","F","T","Variation","false","T","false",""
"","5236","html-keyboard-response","115","2.0.0","630998","pqwxbtzgbf6","rabbit","z","<div style=""font-size:30pt;"">Most organisms live in temperate climates.</div>","Evolution","F","F","Selection","true","T","false",""
"","2458","html-keyboard-response","116","2.0.0","633958","pqwxbtzgbf6","rabbit","m","<div style=""font-size:30pt;"">Humans are descended from tree-dwelling creatures.</div>","Evolution","T","T","Phylogeny","true","F","false",""
"","3236","html-keyboard-response","117","2.0.0","637697","pqwxbtzgbf6","rabbit","z","<div style=""font-size:30pt;"">Apes are more closely related to monkeys than humans.</div>","Evolution","F","T","Common ancestry","false","T","false",""
"","2843","html-keyboard-response","118","2.0.0","641042","pqwxbtzgbf6","rabbit","m","<div style=""font-size:30pt;"">Evolution requires climate stability.</div>","Evolution","F","F","Variation","true","F","true",""
"","3732","html-keyboard-response","119","2.0.0","645277","pqwxbtzgbf6","rabbit","m","<div style=""font-size:30pt;"">Most organisms die before leaving offspring.</div>","Evolution","T","F","Selection","false","F","false",""
"","1668","html-keyboard-response","120","2.0.0","647447","pqwxbtzgbf6","rabbit","m","<div style=""font-size:30pt;"">Evolution requires differential survival.</div>","Evolution","T","T","Variation","true","F","false",""
"","3080","html-keyboard-response","121","2.0.0","651029","pqwxbtzgbf6","rabbit","z","<div style=""font-size:30pt;"">Humans are more closely related to apes than monkeys.</div>","Evolution","T","T","Common ancestry","true","T","true",""
"","3372","html-keyboard-response","122","2.0.0","654903","pqwxbtzgbf6","rabbit","m","<div style=""font-size:30pt;"">Individual organisms evolve.</div>","Evolution","F","T","Adaptation","false","F","true",""
"","2015","html-keyboard-response","123","2.0.0","657420","pqwxbtzgbf6","rabbit","z","<div style=""font-size:30pt;"">Biological species evolve.</div>","Evolution","T","T","Adaptation","true","T","true",""
"","9259","html-keyboard-response","124","2.0.0","667181","pqwxbtzgbf6","rabbit","z","<div style=""font-size:30pt;"">Inanimate objects evolve.</div>","Evolution","F","F","Adaptation","true","T","false",""
"","3285","html-keyboard-response","125","2.0.0","670969","pqwxbtzgbf6","rabbit","m","<div style=""font-size:30pt;"">Humans are descended from chimpanzees.</div>","Evolution","F","T","Phylogeny","false","F","true",""
"","2449","html-keyboard-response","126","2.0.0","673921","pqwxbtzgbf6","rabbit","m","<div style=""font-size:30pt;"">Humans are descended from plants.</div>","Evolution","F","F","Phylogeny","true","F","true",""
"","2209","html-keyboard-response","127","2.0.0","676631","pqwxbtzgbf6","rabbit","z","<div style=""font-size:30pt;"">Humans are descended from sea-dwelling creatures.</div>","Evolution","T","F","Phylogeny","false","T","true",""
"","2823","html-keyboard-response","128","2.0.0","679956","pqwxbtzgbf6","rabbit","m","<div style=""font-size:30pt;"">Most organisms have plenty to eat.</div>","Evolution","F","T","Selection","false","F","true",""
"","1407","html-keyboard-response","129","2.0.0","681867","pqwxbtzgbf6","rabbit","t","<div style=""font-size:30pt;"">Press T if you are paying attention. Do not press z or m.</div>","Evolution","T3","T3","AttentionCheck","true","T3","true",""
"","2842","html-keyboard-response","130","2.0.0","685211","pqwxbtzgbf6","rabbit","m","<div style=""font-size:30pt;"">Whales are more closely related to humans than fish.</div>","Evolution","T","F","Common ancestry","false","F","false",""
"","1950","html-keyboard-response","131","2.0.0","687664","pqwxbtzgbf6","rabbit","m","<div style=""font-size:30pt;"">Whales are more closely related to plants than fish.</div>","Evolution","F","F","Common ancestry","true","F","true",""
"","4874","html-keyboard-response","132","2.0.0","693039","pqwxbtzgbf6","rabbit","z","<div style=""font-size:30pt;"">Evolution requires within-species variation.</div>","Evolution","T","F","Variation","false","T","true",""
"","2281","html-keyboard-response","133","2.0.0","695822","pqwxbtzgbf6","rabbit","m","<div style=""font-size:30pt;"">Computer viruses evolve.</div>","Evolution","T","F","Adaptation","false","F","false",""
"","2792","html-keyboard-response","134","2.0.0","699117","pqwxbtzgbf6","rabbit","m","<div style=""font-size:30pt;"">Most organisms are adapted to their environment.</div>","Evolution","T","T","Selection","true","F","false",""
"","1321","html-keyboard-response","135","2.0.0","700940","pqwxbtzgbf6","rabbit"," ","<p>The next 20 statements will be about <b>Waves</b>. Press any key to continue.</p>","","","","","","","",""
"","2641","html-keyboard-response","136","2.0.0","703582","pqwxbtzgbf6","rabbit","z","<div style=""font-size:30pt;"">Sound travels through foam.</div>","Waves","F","F","Propagation","true","T","false",""
"","9208","html-keyboard-response","137","2.0.0","713292","pqwxbtzgbf6","rabbit","z","<div style=""font-size:30pt;"">White light contains all colors of light.</div>","Waves","T","F","Light","false","T","true",""
"","2381","html-keyboard-response","138","2.0.0","716175","pqwxbtzgbf6","rabbit","z","<div style=""font-size:30pt;"">Red objects reflect red light.</div>","Waves","T","T","Color","true","T","true",""
"","2069","html-keyboard-response","139","2.0.0","718746","pqwxbtzgbf6","rabbit","t","<div style=""font-size:30pt;"">Press T if you are paying attention. Do not press z or m.</div>","Waves","T3","T3","AttentionCheck","true","T3","true",""
"","4287","html-keyboard-response","140","2.0.0","723535","pqwxbtzgbf6","rabbit","m","<div style=""font-size:30pt;"">Sound travels through metal.</div>","Waves","T","F","Propagation","false","F","false",""
"","4266","html-keyboard-response","141","2.0.0","728303","pqwxbtzgbf6","rabbit","m","<div style=""font-size:30pt;"">Foam reflects sound.</div>","Waves","F","F","Reflection","true","F","true",""
"","46820","html-keyboard-response","142","2.0.0","775625","pqwxbtzgbf6","rabbit","z","<div style=""font-size:30pt;"">Sound travels through air.</div>","Waves","T","T","Propagation","true","T","true",""
"","1834","html-keyboard-response","143","2.0.0","777962","pqwxbtzgbf6","rabbit","z","<div style=""font-size:30pt;"">Prisms reflect light.</div>","Waves","F","T","Reflection","false","T","false",""
"","6737","html-keyboard-response","144","2.0.0","785202","pqwxbtzgbf6","rabbit","m","<div style=""font-size:30pt;"">Mirrors reflect sound.</div>","Waves","T","F","Reflection","false","F","false",""
"","1757","html-keyboard-response","145","2.0.0","787461","pqwxbtzgbf6","rabbit","z","<div style=""font-size:30pt;"">Rainbows contain all colors of light.</div>","Waves","T","T","Light","true","T","true",""
"","1525","html-keyboard-response","146","2.0.0","789489","pqwxbtzgbf6","rabbit","z","<div style=""font-size:30pt;"">Mirrors reflect light.</div>","Waves","T","T","Reflection","true","T","true",""
"","2572","html-keyboard-response","147","2.0.0","792562","pqwxbtzgbf6","rabbit","z","<div style=""font-size:30pt;"">Sounds can be near or far.</div>","Waves","F","T","Sound","false","T","false",""
"","2087","html-keyboard-response","148","2.0.0","795151","pqwxbtzgbf6","rabbit","m","<div style=""font-size:30pt;"">Shadows contain all colors of light.</div>","Waves","F","F","Light","true","F","true",""
"","4845","html-keyboard-response","149","2.0.0","800497","pqwxbtzgbf6","rabbit","z","<div style=""font-size:30pt;"">Red objects absorb blue light.</div>","Waves","T","F","Color","false","T","true",""
"","1338","html-keyboard-response","150","2.0.0","802338","pqwxbtzgbf6","rabbit","z","<div style=""font-size:30pt;"">Sounds can be loud or quiet.</div>","Waves","T","T","Sound","true","T","true",""
"","1257","html-keyboard-response","151","2.0.0","804098","pqwxbtzgbf6","rabbit","z","<div style=""font-size:30pt;"">Sounds can be direct or reflected.</div>","Waves","T","F","Sound","false","T","true",""
"","2086","html-keyboard-response","152","2.0.0","806685","pqwxbtzgbf6","rabbit","m","<div style=""font-size:30pt;"">Red objects absorb red light.</div>","Waves","F","T","Color","false","F","true",""
"","2754","html-keyboard-response","153","2.0.0","809942","pqwxbtzgbf6","rabbit","z","<div style=""font-size:30pt;"">Red objects reflect blue light.</div>","Waves","F","F","Color","true","T","false",""
"","1752","html-keyboard-response","154","2.0.0","812196","pqwxbtzgbf6","rabbit","m","<div style=""font-size:30pt;"">Sounds can be dead or alive.</div>","Waves","F","F","Sound","true","F","true",""
"","1680","html-keyboard-response","155","2.0.0","814379","pqwxbtzgbf6","rabbit","m","<div style=""font-size:30pt;"">Sound travels through a vacuum.</div>","Waves","F","T","Propagation","false","F","true",""
"","1621","html-keyboard-response","156","2.0.0","816501","pqwxbtzgbf6","rabbit","m","<div style=""font-size:30pt;"">Black objects reflect all colors of light.</div>","Waves","F","T","Light","false","F","true",""
"","1927","html-keyboard-response","157","2.0.0","818930","pqwxbtzgbf6","rabbit"," ","
      <p>Thank you for completing this portion of the 
      experiment. We now have a few  questions for you.</p>
      <p>Press any key to proceed, and click submit once you are 
      done with the questions. Thanks! </p>
      ","","","","","","","",""
"","4925","survey-multi-choice","158","null","823858","pqwxbtzgbf6","rabbit","{""grade"":""4th Year"",""gender"":""Female""}","","","","","","","","","[0,1]"
"","78543","survey","159","4.0.0","902448","pqwxbtzgbf6","rabbit","{""age"":21,""major"":""Cognitive and Behavioral Neuroscience"",""experiment_topic"":""naive theories"",""technical_difficulties"":""none""}","","","","","","","","",""
