"success","rt","trial_type","trial_index","plugin_version","time_elapsed","random_id","participant_id","response","stimulus","category","correct_response","naive_theory","concept","is_consistent","response_tf","correct","question_order"
"true","1197","fullscreen","0","null","2203","pqy45y18whh","calf","","","","","","","","","",""
"","3954","survey-text","1","2.0.0","6160","pqy45y18whh","calf","{""participant_id"":""calf""}","","","","","","","","",""
"","11235","html-keyboard-response","2","2.0.0","17397","pqy45y18whh","calf","z","<p>Welcome to the experiment.<br><br>You will see 140 statements about various topics.<br><br>Please read the statements and respond with whether you think they are <b>true (Z key)</b> or <b>false (M key)</b> as quickly as possible!<br><br>Press any key to begin.</p>","","","","","","","",""
"","1797","html-keyboard-response","3","2.0.0","19195","pqy45y18whh","calf","z","<p>The next 20 statements will be about <b>Germs</b>. Press any key to continue.</p>","","","","","","","",""
"","3783","html-keyboard-response","4","2.0.0","22980","pqy45y18whh","calf","m","<div style=""font-size:30pt;"">Germs have DNA.</div>","Germs","T","F","Microbe","false","F","false",""
"","3964","html-keyboard-response","5","2.0.0","27451","pqy45y18whh","calf","z","<div style=""font-size:30pt;"">Being cold can make a person sick.</div>","Germs","F","T","Contagion","false","T","false",""
"","1793","html-keyboard-response","6","2.0.0","29746","pqy45y18whh","calf","m","<div style=""font-size:30pt;"">Sunshine contains germs.</div>","Germs","F","F","Contamination","true","F","true",""
"","2517","html-keyboard-response","7","2.0.0","32777","pqy45y18whh","calf","z","<div style=""font-size:30pt;"">Germs enter the body through the skin.</div>","Germs","F","T","Infection","false","T","false",""
"","1343","html-keyboard-response","8","2.0.0","34629","pqy45y18whh","calf","z","<div style=""font-size:30pt;"">Alcohol kills germs.</div>","Germs","T","T","Sterilization","true","T","true",""
"","2833","html-keyboard-response","9","2.0.0","37969","pqy45y18whh","calf","m","<div style=""font-size:30pt;"">Urine contains germs.</div>","Germs","F","T","Contamination","false","F","true",""
"","2144","html-keyboard-response","10","2.0.0","40626","pqy45y18whh","calf","z","<div style=""font-size:30pt;"">Rotting meat contains germs.</div>","Germs","T","T","Contamination","true","T","true",""
"","2170","html-keyboard-response","11","2.0.0","43313","pqy45y18whh","calf","z","<div style=""font-size:30pt;"">Heat kills germs.</div>","Germs","T","F","Sterilization","false","T","true",""
"","4613","html-keyboard-response","12","2.0.0","48441","pqy45y18whh","calf","m","<div style=""font-size:30pt;"">Germs enter the body through the hair.</div>","Germs","F","F","Infection","true","F","true",""
"","1275","html-keyboard-response","13","2.0.0","50230","pqy45y18whh","calf","z","<div style=""font-size:30pt;"">Germs have a shape.</div>","Germs","T","T","Microbe","true","T","true",""
"","2041","html-keyboard-response","14","2.0.0","52785","pqy45y18whh","calf","z","<div style=""font-size:30pt;"">Being depressed can make a person sick.</div>","Germs","T","F","Contagion","false","T","true",""
"","1404","html-keyboard-response","15","2.0.0","54697","pqy45y18whh","calf","m","<div style=""font-size:30pt;"">Germs have feelings.</div>","Germs","F","F","Microbe","true","F","true",""
"","3227","html-keyboard-response","16","2.0.0","58438","pqy45y18whh","calf","t","<div style=""font-size:30pt;"">Press T if you are paying attention. Do not press z or m.</div>","Germs","T3","T3","AttentionCheck","true","T3","true",""
"","3441","html-keyboard-response","17","2.0.0","62390","pqy45y18whh","calf","m","<div style=""font-size:30pt;"">Water kills germs.</div>","Germs","F","T","Sterilization","false","F","true",""
"","1611","html-keyboard-response","18","2.0.0","64513","pqy45y18whh","calf","m","<div style=""font-size:30pt;"">Kindness kills germs.</div>","Germs","F","F","Sterilization","true","F","true",""
"","2391","html-keyboard-response","19","2.0.0","67405","pqy45y18whh","calf","z","<div style=""font-size:30pt;"">Being happy can make a person sick.</div>","Germs","F","F","Contagion","true","T","false",""
"","2566","html-keyboard-response","20","2.0.0","70478","pqy45y18whh","calf","z","<div style=""font-size:30pt;"">Germs enter the body through the eyes.</div>","Germs","T","F","Infection","false","T","true",""
"","2570","html-keyboard-response","21","2.0.0","73565","pqy45y18whh","calf","z","<div style=""font-size:30pt;"">Being sneezed on can make a person sick.</div>","Germs","T","T","Contagion","true","T","true",""
"","3004","html-keyboard-response","22","2.0.0","77080","pqy45y18whh","calf","z","<div style=""font-size:30pt;"">Germs have an odor.</div>","Germs","F","T","Microbe","false","T","false",""
"","1464","html-keyboard-response","23","2.0.0","79060","pqy45y18whh","calf","z","<div style=""font-size:30pt;"">Germs enter the body through cuts.</div>","Germs","T","T","Infection","true","T","true",""
"","1394","html-keyboard-response","24","2.0.0","80959","pqy45y18whh","calf","z","<div style=""font-size:30pt;"">Dish sponges contain germs.</div>","Germs","T","F","Contamination","false","T","true",""
"","3274","html-keyboard-response","25","2.0.0","84742","pqy45y18whh","calf","m","<p>The next 20 statements will be about <b>Matter</b>. Press any key to continue.</p>","","","","","","","",""
"","2894","html-keyboard-response","26","2.0.0","87637","pqy45y18whh","calf","m","<div style=""font-size:30pt;"">Atoms are visible to the naked eye.</div>","Matter","F","F","Atom","true","F","true",""
"","2121","html-keyboard-response","27","2.0.0","90273","pqy45y18whh","calf","m","<div style=""font-size:30pt;"">A shadow can be cut in half.</div>","Matter","F","T","Divisibility","false","F","true",""
"","2275","html-keyboard-response","28","2.0.0","93057","pqy45y18whh","calf","z","<div style=""font-size:30pt;"">Atoms are the constituents of matter.</div>","Matter","T","T","Atom","true","T","true",""
"","1998","html-keyboard-response","29","2.0.0","95557","pqy45y18whh","calf","z","<div style=""font-size:30pt;"">Rocks are composed of matter.</div>","Matter","T","T","Mass","true","T","true",""
"","2768","html-keyboard-response","30","2.0.0","98835","pqy45y18whh","calf","m","<div style=""font-size:30pt;"">A cold penny is denser than a hot penny.</div>","Matter","T","F","Density","false","F","false",""
"","3264","html-keyboard-response","31","2.0.0","102605","pqy45y18whh","calf","m","<div style=""font-size:30pt;"">A liter of water weighs more than a liter of ice.</div>","Matter","T","F","Weight","false","F","false",""
"","2347","html-keyboard-response","32","2.0.0","105467","pqy45y18whh","calf","z","<div style=""font-size:30pt;"">A grain of sand can be cut in half.</div>","Matter","T","F","Divisibility","false","T","true",""
"","10597","html-keyboard-response","33","2.0.0","116567","pqy45y18whh","calf","z","<div style=""font-size:30pt;"">A pound of steel weighs more than a ton of steel.</div>","Matter","F","F","Weight","true","T","false",""
"","3626","html-keyboard-response","34","2.0.0","120703","pqy45y18whh","calf","m","<div style=""font-size:30pt;"">Air is composed of matter.</div>","Matter","T","F","Mass","false","F","false",""
"","1355","html-keyboard-response","35","2.0.0","122570","pqy45y18whh","calf","t","<div style=""font-size:30pt;"">Press T if you are paying attention. Do not press z or m.</div>","Matter","T3","T3","AttentionCheck","true","T3","true",""
"","2463","html-keyboard-response","36","2.0.0","125549","pqy45y18whh","calf","m","<div style=""font-size:30pt;"">Fire is composed of matter.</div>","Matter","F","T","Mass","false","F","true",""
"","1911","html-keyboard-response","37","2.0.0","127964","pqy45y18whh","calf","m","<div style=""font-size:30pt;"">Atoms are weightless.</div>","Matter","F","T","Atom","false","F","true",""
"","4326","html-keyboard-response","38","2.0.0","132802","pqy45y18whh","calf","z","<div style=""font-size:30pt;"">Steel is denser than foam.</div>","Matter","T","T","Density","true","T","true",""
"","4789","html-keyboard-response","39","2.0.0","138093","pqy45y18whh","calf","m","<div style=""font-size:30pt;"">Atoms are mostly empty space.</div>","Matter","T","F","Atom","false","F","false",""
"","2686","html-keyboard-response","40","2.0.0","141294","pqy45y18whh","calf","m","<div style=""font-size:30pt;"">Numbers are composed of matter.</div>","Matter","F","F","Mass","true","F","true",""
"","5406","html-keyboard-response","41","2.0.0","147210","pqy45y18whh","calf","z","<div style=""font-size:30pt;"">A liter of water weighs more than a liter of air.</div>","Matter","T","T","Weight","true","T","true",""
"","1288","html-keyboard-response","42","2.0.0","149008","pqy45y18whh","calf","z","<div style=""font-size:30pt;"">A log can be cut in half.</div>","Matter","T","T","Divisibility","true","T","true",""
"","4781","html-keyboard-response","43","2.0.0","154298","pqy45y18whh","calf","z","<div style=""font-size:30pt;"">Ice is denser than water.</div>","Matter","F","T","Density","false","T","false",""
"","2405","html-keyboard-response","44","2.0.0","157206","pqy45y18whh","calf","m","<div style=""font-size:30pt;"">An idea can be cut in half.</div>","Matter","F","F","Divisibility","true","F","true",""
"","3091","html-keyboard-response","45","2.0.0","160803","pqy45y18whh","calf","m","<div style=""font-size:30pt;"">A pound of steel weighs more than a pound of feathers.</div>","Matter","F","T","Weight","false","F","true",""
"","3938","html-keyboard-response","46","2.0.0","165252","pqy45y18whh","calf","m","<div style=""font-size:30pt;"">Foam is denser than brick.</div>","Matter","F","F","Density","true","F","true",""
"","1547","html-keyboard-response","47","2.0.0","167307","pqy45y18whh","calf","m","<p>The next 20 statements will be about <b>Thermodynamics</b>. Press any key to continue.</p>","","","","","","","",""
"","4337","html-keyboard-response","48","2.0.0","171645","pqy45y18whh","calf","z","<div style=""font-size:30pt;"">Water transfers heat to steam.</div>","Thermodynamics","F","T","Heat transfer","false","T","false",""
"","2961","html-keyboard-response","49","2.0.0","175116","pqy45y18whh","calf","z","<div style=""font-size:30pt;"">Cold objects transfer heat to warm objects.</div>","Thermodynamics","F","F","Heat transfer","true","T","false",""
"","1715","html-keyboard-response","50","2.0.0","177340","pqy45y18whh","calf","m","<div style=""font-size:30pt;"">Gravity has heat.</div>","Thermodynamics","F","F","Heat","true","F","true",""
"","1160","html-keyboard-response","51","2.0.0","179008","pqy45y18whh","calf","m","<div style=""font-size:30pt;"">Ice has a lower temperature than water.</div>","Thermodynamics","T","T","Temperature","true","F","false",""
"","3545","html-keyboard-response","52","2.0.0","183067","pqy45y18whh","calf","z","<div style=""font-size:30pt;"">Heat increases an object's color.</div>","Thermodynamics","F","F","Thermal expansion","true","T","false",""
"","6781","html-keyboard-response","53","2.0.0","190361","pqy45y18whh","calf","m","<div style=""font-size:30pt;"">Water transfers heat to ice.</div>","Thermodynamics","T","T","Heat transfer","true","F","false",""
"","4783","html-keyboard-response","54","2.0.0","195660","pqy45y18whh","calf","z","<div style=""font-size:30pt;"">Steam has a lower temperature than ice.</div>","Thermodynamics","F","F","Temperature","true","T","false",""
"","3647","html-keyboard-response","55","2.0.0","199823","pqy45y18whh","calf","m","<div style=""font-size:30pt;"">Ice has heat.</div>","Thermodynamics","T","F","Heat","false","F","false",""
"","2363","html-keyboard-response","56","2.0.0","202700","pqy45y18whh","calf","m","<div style=""font-size:30pt;"">Coats produce heat.</div>","Thermodynamics","F","T","Heat source","false","F","true",""
"","1831","html-keyboard-response","57","2.0.0","205046","pqy45y18whh","calf","m","<div style=""font-size:30pt;"">Heat increases an object's size.</div>","Thermodynamics","T","F","Thermal expansion","false","F","false",""
"","1407","html-keyboard-response","58","2.0.0","206969","pqy45y18whh","calf","t","<div style=""font-size:30pt;"">Press T if you are paying attention. Do not press z or m.</div>","Thermodynamics","T3","T3","AttentionCheck","true","T3","true",""
"","3939","html-keyboard-response","59","2.0.0","211418","pqy45y18whh","calf","z","<div style=""font-size:30pt;"">Atoms have heat.</div>","Thermodynamics","F","T","Heat","false","T","false",""
"","1109","html-keyboard-response","60","2.0.0","213038","pqy45y18whh","calf","m","<div style=""font-size:30pt;"">Cold objects transfer heat to even colder objects.</div>","Thermodynamics","T","F","Heat transfer","false","F","false",""
"","7246","html-keyboard-response","61","2.0.0","220802","pqy45y18whh","calf","m","<div style=""font-size:30pt;"">Boiling water has a lower temperature than steam.</div>","Thermodynamics","T","F","Temperature","false","F","false",""
"","1919","html-keyboard-response","62","2.0.0","223236","pqy45y18whh","calf","z","<div style=""font-size:30pt;"">The sun has heat.</div>","Thermodynamics","T","T","Heat","true","T","true",""
"","2423","html-keyboard-response","63","2.0.0","226161","pqy45y18whh","calf","z","<div style=""font-size:30pt;"">Heat increases an object's temperature.</div>","Thermodynamics","T","T","Thermal expansion","true","T","true",""
"","1335","html-keyboard-response","64","2.0.0","228010","pqy45y18whh","calf","m","<div style=""font-size:30pt;"">Heat increases an object's weight.</div>","Thermodynamics","F","T","Thermal expansion","false","F","true",""
"","2505","html-keyboard-response","65","2.0.0","231026","pqy45y18whh","calf","z","<div style=""font-size:30pt;"">Pressure produces heat.</div>","Thermodynamics","T","F","Heat source","false","T","true",""
"","6753","html-keyboard-response","66","2.0.0","238281","pqy45y18whh","calf","m","<div style=""font-size:30pt;"">Two cups of ice have a lower temperature than one.</div>","Thermodynamics","F","T","Temperature","false","F","true",""
"","5674","html-keyboard-response","67","2.0.0","244464","pqy45y18whh","calf","m","<div style=""font-size:30pt;"">Rain produces heat.</div>","Thermodynamics","F","F","Heat source","true","F","true",""
"","1700","html-keyboard-response","68","2.0.0","246669","pqy45y18whh","calf","z","<div style=""font-size:30pt;"">Ovens produce heat.</div>","Thermodynamics","T","T","Heat source","true","T","true",""
"","954","html-keyboard-response","69","2.0.0","248130","pqy45y18whh","calf","m","<p>The next 20 statements will be about <b>Genetics</b>. Press any key to continue.</p>","","","","","","","",""
"","2882","html-keyboard-response","70","2.0.0","251013","pqy45y18whh","calf","z","<div style=""font-size:30pt;"">Radiation can change one's genome.</div>","Genetics","T","T","Mutation","true","T","true",""
"","1297","html-keyboard-response","71","2.0.0","252817","pqy45y18whh","calf","z","<div style=""font-size:30pt;"">Intelligence is heritable.</div>","Genetics","T","F","Heritability","false","T","true",""
"","1323","html-keyboard-response","72","2.0.0","254643","pqy45y18whh","calf","m","<div style=""font-size:30pt;"">Pierced ears are heritable.</div>","Genetics","F","F","Heritability","true","F","true",""
"","3165","html-keyboard-response","73","2.0.0","258324","pqy45y18whh","calf","z","<div style=""font-size:30pt;"">Genes that code for eye color can be found in tears.</div>","Genetics","F","T","Expression","false","T","false",""
"","2550","html-keyboard-response","74","2.0.0","261387","pqy45y18whh","calf","m","<div style=""font-size:30pt;"">Adults have more chromosomes than children.</div>","Genetics","F","T","Chromosome","false","F","true",""
"","3896","html-keyboard-response","75","2.0.0","265789","pqy45y18whh","calf","m","<div style=""font-size:30pt;"">Immunity to chickenpox is heritable.</div>","Genetics","F","T","Heritability","false","F","true",""
"","2271","html-keyboard-response","76","2.0.0","268566","pqy45y18whh","calf","m","<div style=""font-size:30pt;"">Sunscreen can change one's genome.</div>","Genetics","F","F","Mutation","true","F","true",""
"","3715","html-keyboard-response","77","2.0.0","272784","pqy45y18whh","calf","m","<div style=""font-size:30pt;"">Two brown-eyed parents could have a blue-eyed baby.</div>","Genetics","T","F","Dominance","false","F","false",""
"","2560","html-keyboard-response","78","2.0.0","275858","pqy45y18whh","calf","t","<div style=""font-size:30pt;"">Press T if you are paying attention. Do not press z or m.</div>","Genetics","T3","T3","AttentionCheck","true","T3","true",""
"","2812","html-keyboard-response","79","2.0.0","279181","pqy45y18whh","calf","m","<div style=""font-size:30pt;"">Exercise can change one's genome.</div>","Genetics","F","T","Mutation","false","F","true",""
"","4678","html-keyboard-response","80","2.0.0","284362","pqy45y18whh","calf","z","<div style=""font-size:30pt;"">Genes that code for eye color can be found in hair.</div>","Genetics","F","F","Expression","true","T","false",""
"","3611","html-keyboard-response","81","2.0.0","288482","pqy45y18whh","calf","m","<div style=""font-size:30pt;"">Humans have more chromosomes than mosquitoes.</div>","Genetics","T","T","Chromosome","true","F","false",""
"","6122","html-keyboard-response","82","2.0.0","295111","pqy45y18whh","calf","z","<div style=""font-size:30pt;"">Genes that code for eye color can be found in the eye.</div>","Genetics","T","T","Expression","true","T","true",""
"","3367","html-keyboard-response","83","2.0.0","298988","pqy45y18whh","calf","z","<div style=""font-size:30pt;"">A blue-eyed baby must have two blue-eyed parents.</div>","Genetics","F","T","Dominance","false","T","false",""
"","6528","html-keyboard-response","84","2.0.0","306019","pqy45y18whh","calf","m","<div style=""font-size:30pt;"">Genes that code for eye color can be found in the liver.</div>","Genetics","T","F","Expression","false","F","false",""
"","4308","html-keyboard-response","85","2.0.0","310842","pqy45y18whh","calf","m","<div style=""font-size:30pt;"">Men have more chromosomes than women.</div>","Genetics","F","F","Chromosome","true","F","true",""
"","965","html-keyboard-response","86","2.0.0","312319","pqy45y18whh","calf","m","<div style=""font-size:30pt;"">Hair color is heritable.</div>","Genetics","T","T","Heritability","true","F","false",""
"","1914","html-keyboard-response","87","2.0.0","314742","pqy45y18whh","calf","z","<div style=""font-size:30pt;"">Two blue-eyed parents could have a brown-eyed baby.</div>","Genetics","F","F","Dominance","true","T","false",""
"","4541","html-keyboard-response","88","2.0.0","319791","pqy45y18whh","calf","z","<div style=""font-size:30pt;"">Viruses can change one's genome.</div>","Genetics","T","F","Mutation","false","T","true",""
"","2018","html-keyboard-response","89","2.0.0","322322","pqy45y18whh","calf","z","<div style=""font-size:30pt;"">Two brown-eyed parents could have a brown-eyed baby.</div>","Genetics","T","T","Dominance","true","T","true",""
"","7345","html-keyboard-response","90","2.0.0","330169","pqy45y18whh","calf","m","<div style=""font-size:30pt;"">Skin cells have more chromosomes than egg cells.</div>","Genetics","T","F","Chromosome","false","F","false",""
"","871","html-keyboard-response","91","2.0.0","331548","pqy45y18whh","calf","m","<p>The next 20 statements will be about <b>Fractions</b>. Press any key to continue.</p>","","","","","","","",""
"","11133","html-keyboard-response","92","2.0.0","342682","pqy45y18whh","calf","m","<div style=""font-size:30pt;"">1/17 is greater than 1/9.</div>","Fractions","F","T","Ordering","false","F","true",""
"","3950","html-keyboard-response","93","2.0.0","347143","pqy45y18whh","calf","z","<div style=""font-size:30pt;"">12/13 is greater than 1/13.</div>","Fractions","T","T","Ordering","true","T","true",""
"","3505","html-keyboard-response","94","2.0.0","351162","pqy45y18whh","calf","z","<div style=""font-size:30pt;"">4 divided by 1/2 is 8.</div>","Fractions","T","F","Division","false","T","true",""
"","3160","html-keyboard-response","95","2.0.0","354823","pqy45y18whh","calf","z","<div style=""font-size:30pt;"">All decimals are expressible as fractions.</div>","Fractions","T","T","Conversion","true","T","true",""
"","3646","html-keyboard-response","96","2.0.0","358974","pqy45y18whh","calf","z","<div style=""font-size:30pt;"">There are numbers between 1 and 3.</div>","Fractions","T","T","Infinite density","true","T","true",""
"","3010","html-keyboard-response","97","2.0.0","362496","pqy45y18whh","calf","z","<div style=""font-size:30pt;"">1/13 is greater than 1/30.</div>","Fractions","T","F","Ordering","false","T","true",""
"","2905","html-keyboard-response","98","2.0.0","365911","pqy45y18whh","calf","z","<div style=""font-size:30pt;"">1/3 plus 1/3 is 2/3.</div>","Fractions","T","T","Addition","true","T","true",""
"","15494","html-keyboard-response","99","2.0.0","381918","pqy45y18whh","calf","z","<div style=""font-size:30pt;"">4 divided by 2/1 is 2.</div>","Fractions","T","T","Division","true","T","true",""
"","3367","html-keyboard-response","100","2.0.0","385789","pqy45y18whh","calf","z","<div style=""font-size:30pt;"">There are numbers between 1/10 and 10/100.</div>","Fractions","F","T","Infinite density","false","T","false",""
"","1568","html-keyboard-response","101","2.0.0","387870","pqy45y18whh","calf","m","<div style=""font-size:30pt;"">There are numbers between 10 and 10.</div>","Fractions","F","F","Infinite density","true","F","true",""
"","6656","html-keyboard-response","102","2.0.0","395037","pqy45y18whh","calf","z","<div style=""font-size:30pt;"">All integers are expressible as fractions.</div>","Fractions","T","F","Conversion","false","T","true",""
"","2171","html-keyboard-response","103","2.0.0","397710","pqy45y18whh","calf","z","<div style=""font-size:30pt;"">1/10 plus 1/10 is 1/5.</div>","Fractions","T","F","Addition","false","T","true",""
"","2181","html-keyboard-response","104","2.0.0","400403","pqy45y18whh","calf","z","<div style=""font-size:30pt;"">There are numbers between 1/3 and 1/2.</div>","Fractions","T","F","Infinite density","false","T","true",""
"","3177","html-keyboard-response","105","2.0.0","404088","pqy45y18whh","calf","z","<div style=""font-size:30pt;"">All fractions are expressible as integers.</div>","Fractions","F","F","Conversion","true","T","false",""
"","4722","html-keyboard-response","106","2.0.0","409327","pqy45y18whh","calf","m","<div style=""font-size:30pt;"">1/17 is greater than 16/17.</div>","Fractions","F","F","Ordering","true","F","true",""
"","26265","html-keyboard-response","107","2.0.0","436098","pqy45y18whh","calf","m","<div style=""font-size:30pt;"">2/3 plus 2/4 is 2/7.</div>","Fractions","F","T","Addition","false","F","true",""
"","4772","html-keyboard-response","108","2.0.0","441379","pqy45y18whh","calf","m","<div style=""font-size:30pt;"">8 divided by 2/1 is 3.</div>","Fractions","F","F","Division","true","F","true",""
"","1174","html-keyboard-response","109","2.0.0","443058","pqy45y18whh","calf","t","<div style=""font-size:30pt;"">Press T if you are paying attention. Do not press z or m.</div>","Fractions","T3","T3","AttentionCheck","true","T3","true",""
"","1743","html-keyboard-response","110","2.0.0","445314","pqy45y18whh","calf","m","<div style=""font-size:30pt;"">1/3 plus 1/3 is 1/3.</div>","Fractions","F","F","Addition","true","F","true",""
"","1882","html-keyboard-response","111","2.0.0","447706","pqy45y18whh","calf","z","<div style=""font-size:30pt;"">All fractions are expressible as decimals.</div>","Fractions","F","T","Conversion","false","T","false",""
"","3777","html-keyboard-response","112","2.0.0","451997","pqy45y18whh","calf","m","<div style=""font-size:30pt;"">8 divided by 1/2 is 4.</div>","Fractions","F","T","Division","false","F","true",""
"","1797","html-keyboard-response","113","2.0.0","454309","pqy45y18whh","calf","m","<p>The next 20 statements will be about <b>Evolution</b>. Press any key to continue.</p>","","","","","","","",""
"","6251","html-keyboard-response","114","2.0.0","460562","pqy45y18whh","calf","z","<div style=""font-size:30pt;"">Apes are more closely related to monkeys than humans.</div>","Evolution","F","T","Common ancestry","false","T","false",""
"","3694","html-keyboard-response","115","2.0.0","464772","pqy45y18whh","calf","m","<div style=""font-size:30pt;"">Whales are more closely related to plants than fish.</div>","Evolution","F","F","Common ancestry","true","F","true",""
"","1139","html-keyboard-response","116","2.0.0","466428","pqy45y18whh","calf","z","<div style=""font-size:30pt;"">Evolution requires within-species variation.</div>","Evolution","T","F","Variation","false","T","true",""
"","2653","html-keyboard-response","117","2.0.0","469582","pqy45y18whh","calf","z","<div style=""font-size:30pt;"">Whales are more closely related to humans than fish.</div>","Evolution","T","F","Common ancestry","false","T","true",""
"","1855","html-keyboard-response","118","2.0.0","471948","pqy45y18whh","calf","m","<div style=""font-size:30pt;"">Humans are descended from plants.</div>","Evolution","F","F","Phylogeny","true","F","true",""
"","5342","html-keyboard-response","119","2.0.0","477797","pqy45y18whh","calf","z","<div style=""font-size:30pt;"">Most organisms are adapted to their environment.</div>","Evolution","T","T","Selection","true","T","true",""
"","3361","html-keyboard-response","120","2.0.0","481663","pqy45y18whh","calf","m","<div style=""font-size:30pt;"">Humans are descended from sea-dwelling creatures.</div>","Evolution","T","F","Phylogeny","false","F","false",""
"","5890","html-keyboard-response","121","2.0.0","488060","pqy45y18whh","calf","z","<div style=""font-size:30pt;"">Biological species evolve.</div>","Evolution","T","T","Adaptation","true","T","true",""
"","1424","html-keyboard-response","122","2.0.0","489998","pqy45y18whh","calf","z","<div style=""font-size:30pt;"">Evolution requires long periods of time.</div>","Evolution","F","T","Variation","false","T","false",""
"","1759","html-keyboard-response","123","2.0.0","492261","pqy45y18whh","calf","m","<div style=""font-size:30pt;"">Inanimate objects evolve.</div>","Evolution","F","F","Adaptation","true","F","true",""
"","6726","html-keyboard-response","124","2.0.0","499492","pqy45y18whh","calf","z","<div style=""font-size:30pt;"">Humans are more closely related to apes than monkeys.</div>","Evolution","T","T","Common ancestry","true","T","true",""
"","14373","html-keyboard-response","125","2.0.0","514376","pqy45y18whh","calf","z","<div style=""font-size:30pt;"">Evolution requires differential survival.</div>","Evolution","T","T","Variation","true","T","true",""
"","1517","html-keyboard-response","126","2.0.0","516409","pqy45y18whh","calf","m","<div style=""font-size:30pt;"">Humans are descended from chimpanzees.</div>","Evolution","F","T","Phylogeny","false","F","true",""
"","2167","html-keyboard-response","127","2.0.0","519090","pqy45y18whh","calf","z","<div style=""font-size:30pt;"">Evolution requires climate stability.</div>","Evolution","F","F","Variation","true","T","false",""
"","2304","html-keyboard-response","128","2.0.0","521903","pqy45y18whh","calf","z","<div style=""font-size:30pt;"">Most organisms live in temperate climates.</div>","Evolution","F","F","Selection","true","T","false",""
"","1773","html-keyboard-response","129","2.0.0","524191","pqy45y18whh","calf","z","<div style=""font-size:30pt;"">Most organisms have plenty to eat.</div>","Evolution","F","T","Selection","false","T","false",""
"","2501","html-keyboard-response","130","2.0.0","527205","pqy45y18whh","calf","z","<div style=""font-size:30pt;"">Computer viruses evolve.</div>","Evolution","T","F","Adaptation","false","T","true",""
"","1214","html-keyboard-response","131","2.0.0","528932","pqy45y18whh","calf","t","<div style=""font-size:30pt;"">Press T if you are paying attention. Do not press z or m.</div>","Evolution","T3","T3","AttentionCheck","true","T3","true",""
"","1827","html-keyboard-response","132","2.0.0","531267","pqy45y18whh","calf","z","<div style=""font-size:30pt;"">Humans are descended from tree-dwelling creatures.</div>","Evolution","T","T","Phylogeny","true","T","true",""
"","1141","html-keyboard-response","133","2.0.0","532916","pqy45y18whh","calf","z","<div style=""font-size:30pt;"">Individual organisms evolve.</div>","Evolution","F","T","Adaptation","false","T","false",""
"","2155","html-keyboard-response","134","2.0.0","535575","pqy45y18whh","calf","z","<div style=""font-size:30pt;"">Most organisms die before leaving offspring.</div>","Evolution","T","F","Selection","false","T","true",""
"","875","html-keyboard-response","135","2.0.0","536962","pqy45y18whh","calf","m","<p>The next 20 statements will be about <b>Waves</b>. Press any key to continue.</p>","","","","","","","",""
"","2585","html-keyboard-response","136","2.0.0","539548","pqy45y18whh","calf","m","<div style=""font-size:30pt;"">Black objects reflect all colors of light.</div>","Waves","F","T","Light","false","F","true",""
"","1798","html-keyboard-response","137","2.0.0","541849","pqy45y18whh","calf","m","<div style=""font-size:30pt;"">Foam reflects sound.</div>","Waves","F","F","Reflection","true","F","true",""
"","1617","html-keyboard-response","138","2.0.0","543973","pqy45y18whh","calf","z","<div style=""font-size:30pt;"">Sounds can be near or far.</div>","Waves","F","T","Sound","false","T","false",""
"","5653","html-keyboard-response","139","2.0.0","550130","pqy45y18whh","calf","m","<div style=""font-size:30pt;"">Red objects reflect blue light.</div>","Waves","F","F","Color","true","F","true",""
"","3994","html-keyboard-response","140","2.0.0","554629","pqy45y18whh","calf","z","<div style=""font-size:30pt;"">Sound travels through foam.</div>","Waves","F","F","Propagation","true","T","false",""
"","2832","html-keyboard-response","141","2.0.0","557970","pqy45y18whh","calf","z","<div style=""font-size:30pt;"">Sound travels through air.</div>","Waves","T","T","Propagation","true","T","true",""
"","1123","html-keyboard-response","142","2.0.0","559607","pqy45y18whh","calf","z","<div style=""font-size:30pt;"">Sound travels through a vacuum.</div>","Waves","F","T","Propagation","false","T","false",""
"","5250","html-keyboard-response","143","2.0.0","565371","pqy45y18whh","calf","m","<div style=""font-size:30pt;"">Shadows contain all colors of light.</div>","Waves","F","F","Light","true","F","true",""
"","4529","html-keyboard-response","144","2.0.0","570406","pqy45y18whh","calf","z","<div style=""font-size:30pt;"">White light contains all colors of light.</div>","Waves","T","F","Light","false","T","true",""
"","1104","html-keyboard-response","145","2.0.0","572021","pqy45y18whh","calf","z","<div style=""font-size:30pt;"">Sounds can be loud or quiet.</div>","Waves","T","T","Sound","true","T","true",""
"","1767","html-keyboard-response","146","2.0.0","574297","pqy45y18whh","calf","m","<div style=""font-size:30pt;"">Sounds can be dead or alive.</div>","Waves","F","F","Sound","true","F","true",""
"","1011","html-keyboard-response","147","2.0.0","575823","pqy45y18whh","calf","z","<div style=""font-size:30pt;"">Mirrors reflect light.</div>","Waves","T","T","Reflection","true","T","true",""
"","720","html-keyboard-response","148","2.0.0","577049","pqy45y18whh","calf","z","<div style=""font-size:30pt;"">Prisms reflect light.</div>","Waves","F","T","Reflection","false","T","false",""
"","4027","html-keyboard-response","149","2.0.0","581591","pqy45y18whh","calf","z","<div style=""font-size:30pt;"">Rainbows contain all colors of light.</div>","Waves","T","T","Light","true","T","true",""
"","1258","html-keyboard-response","150","2.0.0","583362","pqy45y18whh","calf","t","<div style=""font-size:30pt;"">Press T if you are paying attention. Do not press z or m.</div>","Waves","T3","T3","AttentionCheck","true","T3","true",""
"","3209","html-keyboard-response","151","2.0.0","587083","pqy45y18whh","calf","m","<div style=""font-size:30pt;"">Red objects reflect red light.</div>","Waves","T","T","Color","true","F","false",""
"","1231","html-keyboard-response","152","2.0.0","588829","pqy45y18whh","calf","m","<div style=""font-size:30pt;"">Mirrors reflect sound.</div>","Waves","T","F","Reflection","false","F","false",""
"","2664","html-keyboard-response","153","2.0.0","591996","pqy45y18whh","calf","z","<div style=""font-size:30pt;"">Red objects absorb red light.</div>","Waves","F","T","Color","false","T","false",""
"","1293","html-keyboard-response","154","2.0.0","593794","pqy45y18whh","calf","z","<div style=""font-size:30pt;"">Sound travels through metal.</div>","Waves","T","F","Propagation","false","T","true",""
"","1098","html-keyboard-response","155","2.0.0","595397","pqy45y18whh","calf","z","<div style=""font-size:30pt;"">Sounds can be direct or reflected.</div>","Waves","T","F","Sound","false","T","true",""
"","2756","html-keyboard-response","156","2.0.0","598665","pqy45y18whh","calf","z","<div style=""font-size:30pt;"">Red objects absorb blue light.</div>","Waves","T","F","Color","false","T","true",""
"","1870","html-keyboard-response","157","2.0.0","601039","pqy45y18whh","calf","m","
      <p>Thank you for completing this portion of the 
      experiment. We now have a few  questions for you.</p>
      <p>Press any key to proceed, and click submit once you are 
      done with the questions. Thanks! </p>
      ","","","","","","","",""
"","5698","survey-multi-choice","158","null","606741","pqy45y18whh","calf","{""grade"":""4th Year"",""gender"":""Female""}","","","","","","","","","[0,1]"
"","69585","survey","159","4.0.0","676379","pqy45y18whh","calf","{""age"":22,""major"":""cbn"",""experiment_topic"":""could be how old I am and my knowledge level"",""technical_difficulties"":""I am not very good with common sense if these questions were meant to be easy""}","","","","","","","","",""
