"success","rt","trial_type","trial_index","plugin_version","time_elapsed","random_id","participant_id","response","stimulus","category","correct_response","naive_theory","concept","is_consistent","response_tf","correct","question_order"
"true","1198","fullscreen","0","null","2204","pr8440gmw0w","alpaca","","","","","","","","","",""
"","3495","survey-text","1","2.0.0","5704","pr8440gmw0w","alpaca","{""participant_id"":""alpaca""}","","","","","","","","",""
"","21861","html-keyboard-response","2","2.0.0","27569","pr8440gmw0w","alpaca"," ","<p>Welcome to the experiment.<br><br>You will see 140 statements about various topics.<br><br>Please read the statements and respond with whether you think they are <b>true (Z key)</b> or <b>false (M key)</b> as quickly as possible!<br><br>Press any key to begin.</p>","","","","","","","",""
"","3063","html-keyboard-response","3","2.0.0","30633","pr8440gmw0w","alpaca"," ","<p>The next 20 statements will be about <b>Mechanics</b>. Press any key to continue.</p>","","","","","","","",""
"","11838","html-keyboard-response","4","2.0.0","42473","pr8440gmw0w","alpaca","m","<div style=""font-size:30pt;"">Bright objects fall through air faster than dark objects.</div>","Mechanics","F","F","Gravity","true","F","true",""
"","3800","html-keyboard-response","5","2.0.0","46775","pr8440gmw0w","alpaca","z","<div style=""font-size:30pt;"">A moving bullet loses force.</div>","Mechanics","F","T","Velocity","false","T","false",""
"","5813","html-keyboard-response","6","2.0.0","53091","pr8440gmw0w","alpaca","z","<div style=""font-size:30pt;"">Forces can be balanced or unbalanced.</div>","Mechanics","T","F","Force","false","T","true",""
"","3224","html-keyboard-response","7","2.0.0","56817","pr8440gmw0w","alpaca","z","<div style=""font-size:30pt;"">Heavy balls fall through air faster than light balls.</div>","Mechanics","F","T","Gravity","false","T","false",""
"","12420","html-keyboard-response","8","2.0.0","69740","pr8440gmw0w","alpaca","z","<div style=""font-size:30pt;"">Momentum can be transferred from one object to another.</div>","Mechanics","T","T","Momentum","true","T","true",""
"","5633","html-keyboard-response","9","2.0.0","75875","pr8440gmw0w","alpaca","z","<div style=""font-size:30pt;"">A moving bullet loses speed.</div>","Mechanics","T","T","Velocity","true","T","true",""
"","8757","html-keyboard-response","10","2.0.0","85135","pr8440gmw0w","alpaca","t","<div style=""font-size:30pt;"">Press T if you are paying attention. Do not press z or m.</div>","Mechanics","T3","T3","AttentionCheck","true","T3","true",""
"","7304","html-keyboard-response","11","2.0.0","92940","pr8440gmw0w","alpaca","z","<div style=""font-size:30pt;"">Anvils fall through air faster than feathers.</div>","Mechanics","T","T","Gravity","true","T","true",""
"","4946","html-keyboard-response","12","2.0.0","98389","pr8440gmw0w","alpaca","m","<div style=""font-size:30pt;"">A moving bullet loses weight.</div>","Mechanics","F","F","Velocity","true","F","true",""
"","4380","html-keyboard-response","13","2.0.0","103271","pr8440gmw0w","alpaca","z","<div style=""font-size:30pt;"">A moving bullet loses height.</div>","Mechanics","T","F","Velocity","false","T","true",""
"","4276","html-keyboard-response","14","2.0.0","108050","pr8440gmw0w","alpaca","z","<div style=""font-size:30pt;"">Pointy objects fall through air faster than flat objects.</div>","Mechanics","T","F","Gravity","false","T","true",""
"","4286","html-keyboard-response","15","2.0.0","112838","pr8440gmw0w","alpaca","z","<div style=""font-size:30pt;"">Constant acceleration requires constant force.</div>","Mechanics","T","T","Acceleration","true","T","true",""
"","2965","html-keyboard-response","16","2.0.0","116305","pr8440gmw0w","alpaca","z","<div style=""font-size:30pt;"">Constant motion requires constant force.</div>","Mechanics","F","T","Acceleration","false","T","false",""
"","4141","html-keyboard-response","17","2.0.0","120950","pr8440gmw0w","alpaca","m","<div style=""font-size:30pt;"">Forces can be transferred from one object to another.</div>","Mechanics","F","T","Momentum","false","F","true",""
"","3076","html-keyboard-response","18","2.0.0","124529","pr8440gmw0w","alpaca","m","<div style=""font-size:30pt;"">Constant force can yield constant rest.</div>","Mechanics","T","F","Acceleration","false","F","false",""
"","9472","html-keyboard-response","19","2.0.0","134504","pr8440gmw0w","alpaca","z","<div style=""font-size:30pt;"">Color can be transferred from one object to another.</div>","Mechanics","F","F","Momentum","true","T","false",""
"","2155","html-keyboard-response","20","2.0.0","137161","pr8440gmw0w","alpaca","z","<div style=""font-size:30pt;"">Forces can be strong or weak.</div>","Mechanics","T","T","Force","true","T","true",""
"","4282","html-keyboard-response","21","2.0.0","141945","pr8440gmw0w","alpaca","m","<div style=""font-size:30pt;"">Forces can be straight or curved.</div>","Mechanics","F","T","Force","false","F","true",""
"","14797","html-keyboard-response","22","2.0.0","157245","pr8440gmw0w","alpaca","z","<div style=""font-size:30pt;"">Constant speed requires constant acceleration.</div>","Mechanics","F","F","Acceleration","true","T","false",""
"","6278","html-keyboard-response","23","2.0.0","164025","pr8440gmw0w","alpaca","z","<div style=""font-size:30pt;"">Energy can be transferred from one object to another.</div>","Mechanics","T","F","Momentum","false","T","true",""
"","2868","html-keyboard-response","24","2.0.0","167395","pr8440gmw0w","alpaca","m","<div style=""font-size:30pt;"">Forces can be male or female.</div>","Mechanics","F","F","Force","true","F","true",""
"","3436","html-keyboard-response","25","2.0.0","171334","pr8440gmw0w","alpaca"," ","<p>The next 20 statements will be about <b>Fractions</b>. Press any key to continue.</p>","","","","","","","",""
"","8756","html-keyboard-response","26","2.0.0","180091","pr8440gmw0w","alpaca","z","<div style=""font-size:30pt;"">All decimals are expressible as fractions.</div>","Fractions","T","T","Conversion","true","T","true",""
"","4835","html-keyboard-response","27","2.0.0","185428","pr8440gmw0w","alpaca","z","<div style=""font-size:30pt;"">1/3 plus 1/3 is 2/3.</div>","Fractions","T","T","Addition","true","T","true",""
"","3797","html-keyboard-response","28","2.0.0","189727","pr8440gmw0w","alpaca","z","<div style=""font-size:30pt;"">12/13 is greater than 1/13.</div>","Fractions","T","T","Ordering","true","T","true",""
"","1615","html-keyboard-response","29","2.0.0","191846","pr8440gmw0w","alpaca","t","<div style=""font-size:30pt;"">Press T if you are paying attention. Do not press z or m.</div>","Fractions","T3","T3","AttentionCheck","true","T3","true",""
"","8448","html-keyboard-response","30","2.0.0","200796","pr8440gmw0w","alpaca","m","<div style=""font-size:30pt;"">4 divided by 1/2 is 8.</div>","Fractions","T","F","Division","false","F","false",""
"","9392","html-keyboard-response","31","2.0.0","210691","pr8440gmw0w","alpaca","z","<div style=""font-size:30pt;"">There are numbers between 1/10 and 10/100.</div>","Fractions","F","T","Infinite density","false","T","false",""
"","4796","html-keyboard-response","32","2.0.0","215989","pr8440gmw0w","alpaca","z","<div style=""font-size:30pt;"">There are numbers between 1/3 and 1/2.</div>","Fractions","T","F","Infinite density","false","T","true",""
"","4448","html-keyboard-response","33","2.0.0","220939","pr8440gmw0w","alpaca","z","<div style=""font-size:30pt;"">4 divided by 2/1 is 2.</div>","Fractions","T","T","Division","true","T","true",""
"","4747","html-keyboard-response","34","2.0.0","226188","pr8440gmw0w","alpaca","z","<div style=""font-size:30pt;"">All integers are expressible as fractions.</div>","Fractions","T","F","Conversion","false","T","true",""
"","3969","html-keyboard-response","35","2.0.0","230660","pr8440gmw0w","alpaca","m","<div style=""font-size:30pt;"">1/17 is greater than 1/9.</div>","Fractions","F","T","Ordering","false","F","true",""
"","2026","html-keyboard-response","36","2.0.0","233189","pr8440gmw0w","alpaca","z","<div style=""font-size:30pt;"">There are numbers between 1 and 3.</div>","Fractions","T","T","Infinite density","true","T","true",""
"","4641","html-keyboard-response","37","2.0.0","238332","pr8440gmw0w","alpaca","m","<div style=""font-size:30pt;"">1/17 is greater than 16/17.</div>","Fractions","F","F","Ordering","true","F","true",""
"","9937","html-keyboard-response","38","2.0.0","248772","pr8440gmw0w","alpaca","m","<div style=""font-size:30pt;"">2/3 plus 2/4 is 2/7.</div>","Fractions","F","T","Addition","false","F","true",""
"","2792","html-keyboard-response","39","2.0.0","252065","pr8440gmw0w","alpaca","z","<div style=""font-size:30pt;"">1/13 is greater than 1/30.</div>","Fractions","T","F","Ordering","false","T","true",""
"","5609","html-keyboard-response","40","2.0.0","258176","pr8440gmw0w","alpaca","z","<div style=""font-size:30pt;"">8 divided by 1/2 is 4.</div>","Fractions","F","T","Division","false","T","false",""
"","3270","html-keyboard-response","41","2.0.0","261947","pr8440gmw0w","alpaca","m","<div style=""font-size:30pt;"">8 divided by 2/1 is 3.</div>","Fractions","F","F","Division","true","F","true",""
"","1918","html-keyboard-response","42","2.0.0","264368","pr8440gmw0w","alpaca","m","<div style=""font-size:30pt;"">There are numbers between 10 and 10.</div>","Fractions","F","F","Infinite density","true","F","true",""
"","9687","html-keyboard-response","43","2.0.0","274558","pr8440gmw0w","alpaca","z","<div style=""font-size:30pt;"">1/10 plus 1/10 is 1/5.</div>","Fractions","T","F","Addition","false","T","true",""
"","8923","html-keyboard-response","44","2.0.0","283983","pr8440gmw0w","alpaca","z","<div style=""font-size:30pt;"">1/3 plus 1/3 is 1/3.</div>","Fractions","F","F","Addition","true","T","false",""
"","1751","html-keyboard-response","45","2.0.0","286236","pr8440gmw0w","alpaca","z","<div style=""font-size:30pt;"">All fractions are expressible as integers.</div>","Fractions","F","F","Conversion","true","T","false",""
"","2761","html-keyboard-response","46","2.0.0","289499","pr8440gmw0w","alpaca","z","<div style=""font-size:30pt;"">All fractions are expressible as decimals.</div>","Fractions","F","T","Conversion","false","T","false",""
"","1991","html-keyboard-response","47","2.0.0","291992","pr8440gmw0w","alpaca"," ","<p>The next 20 statements will be about <b>Physiology</b>. Press any key to continue.</p>","","","","","","","",""
"","4620","html-keyboard-response","48","2.0.0","296614","pr8440gmw0w","alpaca","z","<div style=""font-size:30pt;"">Ferns can reproduce.</div>","Physiology","T","F","Reproduction","false","T","true",""
"","1645","html-keyboard-response","49","2.0.0","298761","pr8440gmw0w","alpaca","z","<div style=""font-size:30pt;"">Coral is alive.</div>","Physiology","T","F","Life","false","T","true",""
"","1149","html-keyboard-response","50","2.0.0","300412","pr8440gmw0w","alpaca","z","<div style=""font-size:30pt;"">Tigers can reproduce.</div>","Physiology","T","T","Reproduction","true","T","true",""
"","1382","html-keyboard-response","51","2.0.0","302296","pr8440gmw0w","alpaca","m","<div style=""font-size:30pt;"">Screwdrivers can die.</div>","Physiology","F","F","Death","true","F","true",""
"","3216","html-keyboard-response","52","2.0.0","306015","pr8440gmw0w","alpaca","m","<div style=""font-size:30pt;"">A baby can be identical to an older sibling.</div>","Physiology","F","T","Kinship","false","F","true",""
"","2136","html-keyboard-response","53","2.0.0","308652","pr8440gmw0w","alpaca","z","<div style=""font-size:30pt;"">People turn food into energy.</div>","Physiology","T","T","Metabolism","true","T","true",""
"","1587","html-keyboard-response","54","2.0.0","310741","pr8440gmw0w","alpaca","z","<div style=""font-size:30pt;"">Caterpillars can reproduce.</div>","Physiology","F","T","Reproduction","false","T","false",""
"","1586","html-keyboard-response","55","2.0.0","312828","pr8440gmw0w","alpaca","t","<div style=""font-size:30pt;"">Press T if you are paying attention. Do not press z or m.</div>","Physiology","T3","T3","AttentionCheck","true","T3","true",""
"","1994","html-keyboard-response","56","2.0.0","315325","pr8440gmw0w","alpaca","m","<div style=""font-size:30pt;"">Rocks turn food into energy.</div>","Physiology","F","F","Metabolism","true","F","true",""
"","5066","html-keyboard-response","57","2.0.0","320893","pr8440gmw0w","alpaca","z","<div style=""font-size:30pt;"">Plants turn food into energy.</div>","Physiology","F","T","Metabolism","false","T","false",""
"","892","html-keyboard-response","58","2.0.0","322287","pr8440gmw0w","alpaca","z","<div style=""font-size:30pt;"">Fish are alive.</div>","Physiology","T","T","Life","true","T","true",""
"","1935","html-keyboard-response","59","2.0.0","324724","pr8440gmw0w","alpaca","z","<div style=""font-size:30pt;"">A baby can be a niece or a nephew.</div>","Physiology","T","T","Kinship","true","T","true",""
"","2879","html-keyboard-response","60","2.0.0","328105","pr8440gmw0w","alpaca","m","<div style=""font-size:30pt;"">Clouds can die.</div>","Physiology","F","T","Death","false","F","true",""
"","2403","html-keyboard-response","61","2.0.0","331010","pr8440gmw0w","alpaca","z","<div style=""font-size:30pt;"">Mushrooms can die.</div>","Physiology","T","F","Death","false","T","true",""
"","1231","html-keyboard-response","62","2.0.0","332744","pr8440gmw0w","alpaca","m","<div style=""font-size:30pt;"">Chairs can reproduce.</div>","Physiology","F","F","Reproduction","true","F","true",""
"","2868","html-keyboard-response","63","2.0.0","336114","pr8440gmw0w","alpaca","m","<div style=""font-size:30pt;"">A baby can be a mother or a father.</div>","Physiology","F","F","Kinship","true","F","true",""
"","3419","html-keyboard-response","64","2.0.0","340036","pr8440gmw0w","alpaca","m","<div style=""font-size:30pt;"">The sun is alive.</div>","Physiology","F","T","Life","false","F","true",""
"","1341","html-keyboard-response","65","2.0.0","341879","pr8440gmw0w","alpaca","z","<div style=""font-size:30pt;"">Turtles can die.</div>","Physiology","T","T","Death","true","T","true",""
"","1848","html-keyboard-response","66","2.0.0","344229","pr8440gmw0w","alpaca","z","<div style=""font-size:30pt;"">Bacteria turn food into energy.</div>","Physiology","T","F","Metabolism","false","T","true",""
"","784","html-keyboard-response","67","2.0.0","345515","pr8440gmw0w","alpaca","m","<div style=""font-size:30pt;"">Rocks are alive.</div>","Physiology","F","F","Life","true","F","true",""
"","1942","html-keyboard-response","68","2.0.0","347959","pr8440gmw0w","alpaca","z","<div style=""font-size:30pt;"">A baby can be an uncle or an aunt.</div>","Physiology","T","F","Kinship","false","T","true",""
"","1050","html-keyboard-response","69","2.0.0","349510","pr8440gmw0w","alpaca"," ","<p>The next 20 statements will be about <b>Genetics</b>. Press any key to continue.</p>","","","","","","","",""
"","2648","html-keyboard-response","70","2.0.0","352160","pr8440gmw0w","alpaca","z","<div style=""font-size:30pt;"">Radiation can change one's genome.</div>","Genetics","T","T","Mutation","true","T","true",""
"","2483","html-keyboard-response","71","2.0.0","355146","pr8440gmw0w","alpaca","m","<div style=""font-size:30pt;"">A blue-eyed baby must have two blue-eyed parents.</div>","Genetics","F","T","Dominance","false","F","true",""
"","7962","html-keyboard-response","72","2.0.0","363611","pr8440gmw0w","alpaca","m","<div style=""font-size:30pt;"">Genes that code for eye color can be found in tears.</div>","Genetics","F","T","Expression","false","F","true",""
"","4666","html-keyboard-response","73","2.0.0","368779","pr8440gmw0w","alpaca","m","<div style=""font-size:30pt;"">Men have more chromosomes than women.</div>","Genetics","F","F","Chromosome","true","F","true",""
"","2641","html-keyboard-response","74","2.0.0","371921","pr8440gmw0w","alpaca","m","<div style=""font-size:30pt;"">Genes that code for eye color can be found in the liver.</div>","Genetics","T","F","Expression","false","F","false",""
"","3313","html-keyboard-response","75","2.0.0","375736","pr8440gmw0w","alpaca","m","<div style=""font-size:30pt;"">Adults have more chromosomes than children.</div>","Genetics","F","T","Chromosome","false","F","true",""
"","2899","html-keyboard-response","76","2.0.0","379138","pr8440gmw0w","alpaca","z","<div style=""font-size:30pt;"">Immunity to chickenpox is heritable.</div>","Genetics","F","T","Heritability","false","T","false",""
"","1906","html-keyboard-response","77","2.0.0","381546","pr8440gmw0w","alpaca","m","<div style=""font-size:30pt;"">Exercise can change one's genome.</div>","Genetics","F","T","Mutation","false","F","true",""
"","1949","html-keyboard-response","78","2.0.0","383997","pr8440gmw0w","alpaca","z","<div style=""font-size:30pt;"">Hair color is heritable.</div>","Genetics","T","T","Heritability","true","T","true",""
"","2521","html-keyboard-response","79","2.0.0","387020","pr8440gmw0w","alpaca","m","<div style=""font-size:30pt;"">Genes that code for eye color can be found in the eye.</div>","Genetics","T","T","Expression","true","F","false",""
"","3951","html-keyboard-response","80","2.0.0","391473","pr8440gmw0w","alpaca","m","<div style=""font-size:30pt;"">Pierced ears are heritable.</div>","Genetics","F","F","Heritability","true","F","true",""
"","2352","html-keyboard-response","81","2.0.0","394326","pr8440gmw0w","alpaca","z","<div style=""font-size:30pt;"">Two blue-eyed parents could have a brown-eyed baby.</div>","Genetics","F","F","Dominance","true","T","false",""
"","4502","html-keyboard-response","82","2.0.0","399330","pr8440gmw0w","alpaca","z","<div style=""font-size:30pt;"">Two brown-eyed parents could have a brown-eyed baby.</div>","Genetics","T","T","Dominance","true","T","true",""
"","8231","html-keyboard-response","83","2.0.0","408063","pr8440gmw0w","alpaca","m","<div style=""font-size:30pt;"">Genes that code for eye color can be found in hair.</div>","Genetics","F","F","Expression","true","F","true",""
"","1812","html-keyboard-response","84","2.0.0","410377","pr8440gmw0w","alpaca","m","<div style=""font-size:30pt;"">Viruses can change one's genome.</div>","Genetics","T","F","Mutation","false","F","false",""
"","8589","html-keyboard-response","85","2.0.0","419468","pr8440gmw0w","alpaca","m","<div style=""font-size:30pt;"">Skin cells have more chromosomes than egg cells.</div>","Genetics","T","F","Chromosome","false","F","false",""
"","1519","html-keyboard-response","86","2.0.0","421489","pr8440gmw0w","alpaca","t","<div style=""font-size:30pt;"">Press T if you are paying attention. Do not press z or m.</div>","Genetics","T3","T3","AttentionCheck","true","T3","true",""
"","1907","html-keyboard-response","87","2.0.0","423899","pr8440gmw0w","alpaca","m","<div style=""font-size:30pt;"">Sunscreen can change one's genome.</div>","Genetics","F","F","Mutation","true","F","true",""
"","2375","html-keyboard-response","88","2.0.0","426776","pr8440gmw0w","alpaca","z","<div style=""font-size:30pt;"">Two brown-eyed parents could have a blue-eyed baby.</div>","Genetics","T","F","Dominance","false","T","true",""
"","3270","html-keyboard-response","89","2.0.0","430548","pr8440gmw0w","alpaca","z","<div style=""font-size:30pt;"">Humans have more chromosomes than mosquitoes.</div>","Genetics","T","T","Chromosome","true","T","true",""
"","5097","html-keyboard-response","90","2.0.0","436146","pr8440gmw0w","alpaca","m","<div style=""font-size:30pt;"">Intelligence is heritable.</div>","Genetics","T","F","Heritability","false","F","false",""
"","2967","html-keyboard-response","91","2.0.0","439615","pr8440gmw0w","alpaca"," ","<p>The next 20 statements will be about <b>Evolution</b>. Press any key to continue.</p>","","","","","","","",""
"","6657","html-keyboard-response","92","2.0.0","446273","pr8440gmw0w","alpaca","z","<div style=""font-size:30pt;"">Humans are more closely related to apes than monkeys.</div>","Evolution","T","T","Common ancestry","true","T","true",""
"","2359","html-keyboard-response","93","2.0.0","449134","pr8440gmw0w","alpaca","z","<div style=""font-size:30pt;"">Evolution requires differential survival.</div>","Evolution","T","T","Variation","true","T","true",""
"","3188","html-keyboard-response","94","2.0.0","452824","pr8440gmw0w","alpaca","z","<div style=""font-size:30pt;"">Apes are more closely related to monkeys than humans.</div>","Evolution","F","T","Common ancestry","false","T","false",""
"","4337","html-keyboard-response","95","2.0.0","457664","pr8440gmw0w","alpaca","m","<div style=""font-size:30pt;"">Most organisms have plenty to eat.</div>","Evolution","F","T","Selection","false","F","true",""
"","1645","html-keyboard-response","96","2.0.0","459811","pr8440gmw0w","alpaca","z","<div style=""font-size:30pt;"">Evolution requires long periods of time.</div>","Evolution","F","T","Variation","false","T","false",""
"","1322","html-keyboard-response","97","2.0.0","461636","pr8440gmw0w","alpaca","t","<div style=""font-size:30pt;"">Press T if you are paying attention. Do not press z or m.</div>","Evolution","T3","T3","AttentionCheck","true","T3","true",""
"","3034","html-keyboard-response","98","2.0.0","465171","pr8440gmw0w","alpaca","z","<div style=""font-size:30pt;"">Evolution requires climate stability.</div>","Evolution","F","F","Variation","true","T","false",""
"","2800","html-keyboard-response","99","2.0.0","468475","pr8440gmw0w","alpaca","m","<div style=""font-size:30pt;"">Humans are descended from chimpanzees.</div>","Evolution","F","T","Phylogeny","false","F","true",""
"","5761","html-keyboard-response","100","2.0.0","474738","pr8440gmw0w","alpaca","m","<div style=""font-size:30pt;"">Most organisms die before leaving offspring.</div>","Evolution","T","F","Selection","false","F","false",""
"","2047","html-keyboard-response","101","2.0.0","477287","pr8440gmw0w","alpaca","z","<div style=""font-size:30pt;"">Most organisms are adapted to their environment.</div>","Evolution","T","T","Selection","true","T","true",""
"","3931","html-keyboard-response","102","2.0.0","481720","pr8440gmw0w","alpaca","m","<div style=""font-size:30pt;"">Humans are descended from tree-dwelling creatures.</div>","Evolution","T","T","Phylogeny","true","F","false",""
"","2757","html-keyboard-response","103","2.0.0","484979","pr8440gmw0w","alpaca","z","<div style=""font-size:30pt;"">Most organisms live in temperate climates.</div>","Evolution","F","F","Selection","true","T","false",""
"","2554","html-keyboard-response","104","2.0.0","488035","pr8440gmw0w","alpaca","m","<div style=""font-size:30pt;"">Whales are more closely related to humans than fish.</div>","Evolution","T","F","Common ancestry","false","F","false",""
"","2966","html-keyboard-response","105","2.0.0","491504","pr8440gmw0w","alpaca","m","<div style=""font-size:30pt;"">Humans are descended from plants.</div>","Evolution","F","F","Phylogeny","true","F","true",""
"","954","html-keyboard-response","106","2.0.0","492960","pr8440gmw0w","alpaca","m","<div style=""font-size:30pt;"">Evolution requires within-species variation.</div>","Evolution","T","F","Variation","false","F","false",""
"","1636","html-keyboard-response","107","2.0.0","495099","pr8440gmw0w","alpaca","z","<div style=""font-size:30pt;"">Biological species evolve.</div>","Evolution","T","T","Adaptation","true","T","true",""
"","2568","html-keyboard-response","108","2.0.0","498170","pr8440gmw0w","alpaca","m","<div style=""font-size:30pt;"">Humans are descended from sea-dwelling creatures.</div>","Evolution","T","F","Phylogeny","false","F","false",""
"","1342","html-keyboard-response","109","2.0.0","500014","pr8440gmw0w","alpaca","m","<div style=""font-size:30pt;"">Whales are more closely related to plants than fish.</div>","Evolution","F","F","Common ancestry","true","F","true",""
"","2611","html-keyboard-response","110","2.0.0","503128","pr8440gmw0w","alpaca","m","<div style=""font-size:30pt;"">Inanimate objects evolve.</div>","Evolution","F","F","Adaptation","true","F","true",""
"","1481","html-keyboard-response","111","2.0.0","505111","pr8440gmw0w","alpaca","z","<div style=""font-size:30pt;"">Individual organisms evolve.</div>","Evolution","F","T","Adaptation","false","T","false",""
"","2760","html-keyboard-response","112","2.0.0","508373","pr8440gmw0w","alpaca","m","<div style=""font-size:30pt;"">Computer viruses evolve.</div>","Evolution","T","F","Adaptation","false","F","false",""
"","1228","html-keyboard-response","113","2.0.0","510103","pr8440gmw0w","alpaca"," ","<p>The next 20 statements will be about <b>Matter</b>. Press any key to continue.</p>","","","","","","","",""
"","2285","html-keyboard-response","114","2.0.0","512389","pr8440gmw0w","alpaca","m","<div style=""font-size:30pt;"">Numbers are composed of matter.</div>","Matter","F","F","Mass","true","F","true",""
"","1621","html-keyboard-response","115","2.0.0","514513","pr8440gmw0w","alpaca","z","<div style=""font-size:30pt;"">Rocks are composed of matter.</div>","Matter","T","T","Mass","true","T","true",""
"","1305","html-keyboard-response","116","2.0.0","516319","pr8440gmw0w","alpaca","z","<div style=""font-size:30pt;"">Fire is composed of matter.</div>","Matter","F","T","Mass","false","T","false",""
"","2657","html-keyboard-response","117","2.0.0","519479","pr8440gmw0w","alpaca","z","<div style=""font-size:30pt;"">Atoms are the constituents of matter.</div>","Matter","T","T","Atom","true","T","true",""
"","2840","html-keyboard-response","118","2.0.0","522822","pr8440gmw0w","alpaca","m","<div style=""font-size:30pt;"">An idea can be cut in half.</div>","Matter","F","F","Divisibility","true","F","true",""
"","4305","html-keyboard-response","119","2.0.0","527630","pr8440gmw0w","alpaca","z","<div style=""font-size:30pt;"">Air is composed of matter.</div>","Matter","T","F","Mass","false","T","true",""
"","3529","html-keyboard-response","120","2.0.0","531661","pr8440gmw0w","alpaca","z","<div style=""font-size:30pt;"">A log can be cut in half.</div>","Matter","T","T","Divisibility","true","T","true",""
"","1639","html-keyboard-response","121","2.0.0","533802","pr8440gmw0w","alpaca","m","<div style=""font-size:30pt;"">Atoms are visible to the naked eye.</div>","Matter","F","F","Atom","true","F","true",""
"","4637","html-keyboard-response","122","2.0.0","538941","pr8440gmw0w","alpaca","m","<div style=""font-size:30pt;"">A liter of water weighs more than a liter of ice.</div>","Matter","T","F","Weight","false","F","false",""
"","3521","html-keyboard-response","123","2.0.0","542965","pr8440gmw0w","alpaca","z","<div style=""font-size:30pt;"">A grain of sand can be cut in half.</div>","Matter","T","F","Divisibility","false","T","true",""
"","3846","html-keyboard-response","124","2.0.0","547313","pr8440gmw0w","alpaca","m","<div style=""font-size:30pt;"">Atoms are mostly empty space.</div>","Matter","T","F","Atom","false","F","false",""
"","2773","html-keyboard-response","125","2.0.0","550588","pr8440gmw0w","alpaca","m","<div style=""font-size:30pt;"">Foam is denser than brick.</div>","Matter","F","F","Density","true","F","true",""
"","7856","html-keyboard-response","126","2.0.0","558946","pr8440gmw0w","alpaca","m","<div style=""font-size:30pt;"">A cold penny is denser than a hot penny.</div>","Matter","T","F","Density","false","F","false",""
"","4074","html-keyboard-response","127","2.0.0","563522","pr8440gmw0w","alpaca","m","<div style=""font-size:30pt;"">A shadow can be cut in half.</div>","Matter","F","T","Divisibility","false","F","true",""
"","1293","html-keyboard-response","128","2.0.0","565318","pr8440gmw0w","alpaca","t","<div style=""font-size:30pt;"">Press T if you are paying attention. Do not press z or m.</div>","Matter","T3","T3","AttentionCheck","true","T3","true",""
"","2556","html-keyboard-response","129","2.0.0","568377","pr8440gmw0w","alpaca","m","<div style=""font-size:30pt;"">A liter of water weighs more than a liter of air.</div>","Matter","T","T","Weight","true","F","false",""
"","1768","html-keyboard-response","130","2.0.0","570646","pr8440gmw0w","alpaca","m","<div style=""font-size:30pt;"">Steel is denser than foam.</div>","Matter","T","T","Density","true","F","false",""
"","5274","html-keyboard-response","131","2.0.0","576422","pr8440gmw0w","alpaca","m","<div style=""font-size:30pt;"">A pound of steel weighs more than a pound of feathers.</div>","Matter","F","T","Weight","false","F","true",""
"","12429","html-keyboard-response","132","2.0.0","589353","pr8440gmw0w","alpaca","m","<div style=""font-size:30pt;"">A pound of steel weighs more than a ton of steel.</div>","Matter","F","F","Weight","true","F","true",""
"","3344","html-keyboard-response","133","2.0.0","593200","pr8440gmw0w","alpaca","z","<div style=""font-size:30pt;"">Ice is denser than water.</div>","Matter","F","T","Density","false","T","false",""
"","5358","html-keyboard-response","134","2.0.0","599060","pr8440gmw0w","alpaca","m","<div style=""font-size:30pt;"">Atoms are weightless.</div>","Matter","F","T","Atom","false","F","true",""
"","1292","html-keyboard-response","135","2.0.0","600854","pr8440gmw0w","alpaca"," ","<p>The next 20 statements will be about <b>Astronomy</b>. Press any key to continue.</p>","","","","","","","",""
"","1338","html-keyboard-response","136","2.0.0","602193","pr8440gmw0w","alpaca","t","<div style=""font-size:30pt;"">Press T if you are paying attention. Do not press z or m.</div>","Astronomy","T3","T3","AttentionCheck","true","T3","true",""
"","7798","html-keyboard-response","137","2.0.0","610493","pr8440gmw0w","alpaca","m","<div style=""font-size:30pt;"">Phases of the moon are caused by clouds.</div>","Astronomy","F","F","Lunar phase","true","F","true",""
"","1473","html-keyboard-response","138","2.0.0","612468","pr8440gmw0w","alpaca","z","<div style=""font-size:30pt;"">The sun produces light.</div>","Astronomy","T","T","Star","true","T","true",""
"","3851","html-keyboard-response","139","2.0.0","616821","pr8440gmw0w","alpaca","m","<div style=""font-size:30pt;"">Phases of the moon are caused by changes in illumination.</div>","Astronomy","T","T","Lunar phase","true","F","false",""
"","4602","html-keyboard-response","140","2.0.0","621926","pr8440gmw0w","alpaca","m","<div style=""font-size:30pt;"">The sun produces sound.</div>","Astronomy","F","F","Star","true","F","true",""
"","3234","html-keyboard-response","141","2.0.0","625662","pr8440gmw0w","alpaca","m","<div style=""font-size:30pt;"">Stars are more massive than planets.</div>","Astronomy","T","F","Planet","false","F","false",""
"","1344","html-keyboard-response","142","2.0.0","627509","pr8440gmw0w","alpaca","m","<div style=""font-size:30pt;"">Asteroids are more massive than planets.</div>","Astronomy","F","F","Planet","true","F","true",""
"","13765","html-keyboard-response","143","2.0.0","641777","pr8440gmw0w","alpaca","m","<div style=""font-size:30pt;"">The moon revolves around the earth.</div>","Astronomy","T","T","Solar system","true","F","false",""
"","3056","html-keyboard-response","144","2.0.0","645335","pr8440gmw0w","alpaca","m","<div style=""font-size:30pt;"">The sun revolves around the moon.</div>","Astronomy","F","F","Solar system","true","F","true",""
"","2270","html-keyboard-response","145","2.0.0","648106","pr8440gmw0w","alpaca","m","<div style=""font-size:30pt;"">The sun revolves around the earth.</div>","Astronomy","F","T","Solar system","false","F","true",""
"","10043","html-keyboard-response","146","2.0.0","658652","pr8440gmw0w","alpaca","z","<div style=""font-size:30pt;"">A change in overall sunlight causes the seasons.</div>","Astronomy","T","T","Season","true","T","true",""
"","1767","html-keyboard-response","147","2.0.0","660921","pr8440gmw0w","alpaca","z","<div style=""font-size:30pt;"">Phases of the moon are caused by the earth's shadow.</div>","Astronomy","F","T","Lunar phase","false","T","false",""
"","1703","html-keyboard-response","148","2.0.0","663125","pr8440gmw0w","alpaca","z","<div style=""font-size:30pt;"">The earth revolves around the sun.</div>","Astronomy","T","F","Solar system","false","T","true",""
"","2797","html-keyboard-response","149","2.0.0","666424","pr8440gmw0w","alpaca","z","<div style=""font-size:30pt;"">Planets are more massive than stars.</div>","Astronomy","F","T","Planet","false","T","false",""
"","2222","html-keyboard-response","150","2.0.0","669148","pr8440gmw0w","alpaca","m","<div style=""font-size:30pt;"">The earth's tilt causes the seasons.</div>","Astronomy","T","F","Season","false","F","false",""
"","2073","html-keyboard-response","151","2.0.0","671724","pr8440gmw0w","alpaca","m","<div style=""font-size:30pt;"">Phases of the moon are caused by the moon's orbit.</div>","Astronomy","T","F","Lunar phase","false","F","false",""
"","2724","html-keyboard-response","152","2.0.0","674950","pr8440gmw0w","alpaca","z","<div style=""font-size:30pt;"">The sun produces gravity.</div>","Astronomy","T","F","Star","false","T","true",""
"","3012","html-keyboard-response","153","2.0.0","678465","pr8440gmw0w","alpaca","z","<div style=""font-size:30pt;"">The earth's rotation causes the seasons.</div>","Astronomy","F","F","Season","true","T","false",""
"","1671","html-keyboard-response","154","2.0.0","680638","pr8440gmw0w","alpaca","m","<div style=""font-size:30pt;"">The earth's distance from the sun causes the seasons.</div>","Astronomy","F","T","Season","false","F","true",""
"","3238","html-keyboard-response","155","2.0.0","684379","pr8440gmw0w","alpaca","m","<div style=""font-size:30pt;"">The moon produces light.</div>","Astronomy","F","T","Star","false","F","true",""
"","3540","html-keyboard-response","156","2.0.0","688421","pr8440gmw0w","alpaca","z","<div style=""font-size:30pt;"">Planets are more massive than moons.</div>","Astronomy","T","T","Planet","true","T","true",""
"","2184","html-keyboard-response","157","2.0.0","691107","pr8440gmw0w","alpaca"," ","
      <p>Thank you for completing this portion of the 
      experiment. We now have a few  questions for you.</p>
      <p>Press any key to proceed, and click submit once you are 
      done with the questions. Thanks! </p>
      ","","","","","","","",""
"","3834","survey-multi-choice","158","null","694948","pr8440gmw0w","alpaca","{""grade"":""4th Year"",""gender"":""Male""}","","","","","","","","","[0,1]"
"","30160","survey","159","4.0.0","725153","pr8440gmw0w","alpaca","{""age"":23,""major"":""cognitive science, design & interaction"",""experiment_topic"":""overall knowledge about everyday subjects"",""technical_difficulties"":""no""}","","","","","","","","",""
