"success","rt","trial_type","trial_index","plugin_version","time_elapsed","random_id","participant_id","response","stimulus","category","correct_response","naive_theory","concept","is_consistent","response_tf","correct","question_order"
"true","457462","fullscreen","0","null","458469","pynjq7zkrwu","lamb","","","","","","","","","",""
"","21065","survey-text","1","2.0.0","479543","pynjq7zkrwu","lamb","{""participant_id"":""lamb""}","","","","","","","","",""
"","34314","html-keyboard-response","2","2.0.0","513862","pynjq7zkrwu","lamb","z","<p>Welcome to the experiment.<br><br>You will see 140 statements about various topics.<br><br>Please read the statements and respond with whether you think they are <b>true (Z key)</b> or <b>false (M key)</b> as quickly as possible!<br><br>Press any key to begin.</p>","","","","","","","",""
"","2614","html-keyboard-response","3","2.0.0","516478","pynjq7zkrwu","lamb","m","<p>The next 20 statements will be about <b>Germs</b>. Press any key to continue.</p>","","","","","","","",""
"","3064","html-keyboard-response","4","2.0.0","519545","pynjq7zkrwu","lamb","z","<div style=""font-size:30pt;"">Germs enter the body through the eyes.</div>","Germs","T","F","Infection","false","T","true",""
"","1697","html-keyboard-response","5","2.0.0","521744","pynjq7zkrwu","lamb","z","<div style=""font-size:30pt;"">Germs have a shape.</div>","Germs","T","T","Microbe","true","T","true",""
"","1714","html-keyboard-response","6","2.0.0","523960","pynjq7zkrwu","lamb","m","<div style=""font-size:30pt;"">Kindness kills germs.</div>","Germs","F","F","Sterilization","true","F","true",""
"","2031","html-keyboard-response","7","2.0.0","526495","pynjq7zkrwu","lamb","m","<div style=""font-size:30pt;"">Alcohol kills germs.</div>","Germs","T","T","Sterilization","true","F","false",""
"","2251","html-keyboard-response","8","2.0.0","529248","pynjq7zkrwu","lamb","z","<div style=""font-size:30pt;"">Urine contains germs.</div>","Germs","F","T","Contamination","false","T","false",""
"","2354","html-keyboard-response","9","2.0.0","532105","pynjq7zkrwu","lamb","z","<div style=""font-size:30pt;"">Dish sponges contain germs.</div>","Germs","T","F","Contamination","false","T","true",""
"","2452","html-keyboard-response","10","2.0.0","535060","pynjq7zkrwu","lamb","z","<div style=""font-size:30pt;"">Being sneezed on can make a person sick.</div>","Germs","T","T","Contagion","true","T","true",""
"","1954","html-keyboard-response","11","2.0.0","537516","pynjq7zkrwu","lamb","m","<div style=""font-size:30pt;"">Sunshine contains germs.</div>","Germs","F","F","Contamination","true","F","true",""
"","1651","html-keyboard-response","12","2.0.0","539669","pynjq7zkrwu","lamb","z","<div style=""font-size:30pt;"">Germs enter the body through cuts.</div>","Germs","T","T","Infection","true","T","true",""
"","1835","html-keyboard-response","13","2.0.0","542007","pynjq7zkrwu","lamb","z","<div style=""font-size:30pt;"">Being depressed can make a person sick.</div>","Germs","T","F","Contagion","false","T","true",""
"","1436","html-keyboard-response","14","2.0.0","543945","pynjq7zkrwu","lamb","m","<div style=""font-size:30pt;"">Germs have feelings.</div>","Germs","F","F","Microbe","true","F","true",""
"","2680","html-keyboard-response","15","2.0.0","547128","pynjq7zkrwu","lamb","z","<div style=""font-size:30pt;"">Rotting meat contains germs.</div>","Germs","T","T","Contamination","true","T","true",""
"","3068","html-keyboard-response","16","2.0.0","550698","pynjq7zkrwu","lamb","m","<div style=""font-size:30pt;"">Water kills germs.</div>","Germs","F","T","Sterilization","false","F","true",""
"","1628","html-keyboard-response","17","2.0.0","552827","pynjq7zkrwu","lamb","m","<div style=""font-size:30pt;"">Being happy can make a person sick.</div>","Germs","F","F","Contagion","true","F","true",""
"","2016","html-keyboard-response","18","2.0.0","555345","pynjq7zkrwu","lamb","z","<div style=""font-size:30pt;"">Heat kills germs.</div>","Germs","T","F","Sterilization","false","T","true",""
"","2873","html-keyboard-response","19","2.0.0","558719","pynjq7zkrwu","lamb","t","<div style=""font-size:30pt;"">Press T if you are paying attention. Do not press z or m.</div>","Germs","T3","T3","AttentionCheck","true","T3","true",""
"","1607","html-keyboard-response","20","2.0.0","560828","pynjq7zkrwu","lamb","z","<div style=""font-size:30pt;"">Germs have DNA.</div>","Germs","T","F","Microbe","false","T","true",""
"","7230","html-keyboard-response","21","2.0.0","568560","pynjq7zkrwu","lamb","m","<div style=""font-size:30pt;"">Germs enter the body through the hair.</div>","Germs","F","F","Infection","true","F","true",""
"","1471","html-keyboard-response","22","2.0.0","570533","pynjq7zkrwu","lamb","z","<div style=""font-size:30pt;"">Being cold can make a person sick.</div>","Germs","F","T","Contagion","false","T","false",""
"","3014","html-keyboard-response","23","2.0.0","574048","pynjq7zkrwu","lamb","z","<div style=""font-size:30pt;"">Germs enter the body through the skin.</div>","Germs","F","T","Infection","false","T","false",""
"","1232","html-keyboard-response","24","2.0.0","575782","pynjq7zkrwu","lamb","m","<div style=""font-size:30pt;"">Germs have an odor.</div>","Germs","F","T","Microbe","false","F","true",""
"","24261","html-keyboard-response","25","2.0.0","600546","pynjq7zkrwu","lamb","z","<p>The next 20 statements will be about <b>Physiology</b>. Press any key to continue.</p>","","","","","","","",""
"","1456","html-keyboard-response","26","2.0.0","602004","pynjq7zkrwu","lamb","z","<div style=""font-size:30pt;"">Fish are alive.</div>","Physiology","T","T","Life","true","T","true",""
"","6658","html-keyboard-response","27","2.0.0","609164","pynjq7zkrwu","lamb","z","<div style=""font-size:30pt;"">Ferns can reproduce.</div>","Physiology","T","F","Reproduction","false","T","true",""
"","1319","html-keyboard-response","28","2.0.0","610985","pynjq7zkrwu","lamb","m","<div style=""font-size:30pt;"">Rocks are alive.</div>","Physiology","F","F","Life","true","F","true",""
"","4730","html-keyboard-response","29","2.0.0","616218","pynjq7zkrwu","lamb","z","<div style=""font-size:30pt;"">A baby can be an uncle or an aunt.</div>","Physiology","T","F","Kinship","false","T","true",""
"","1934","html-keyboard-response","30","2.0.0","618662","pynjq7zkrwu","lamb","z","<div style=""font-size:30pt;"">Clouds can die.</div>","Physiology","F","T","Death","false","T","false",""
"","848","html-keyboard-response","31","2.0.0","620012","pynjq7zkrwu","lamb","z","<div style=""font-size:30pt;"">Turtles can die.</div>","Physiology","T","T","Death","true","T","true",""
"","2881","html-keyboard-response","32","2.0.0","623396","pynjq7zkrwu","lamb","m","<div style=""font-size:30pt;"">The sun is alive.</div>","Physiology","F","T","Life","false","F","true",""
"","1983","html-keyboard-response","33","2.0.0","625880","pynjq7zkrwu","lamb","m","<div style=""font-size:30pt;"">Rocks turn food into energy.</div>","Physiology","F","F","Metabolism","true","F","true",""
"","2897","html-keyboard-response","34","2.0.0","629278","pynjq7zkrwu","lamb","m","<div style=""font-size:30pt;"">Bacteria turn food into energy.</div>","Physiology","T","F","Metabolism","false","F","false",""
"","884","html-keyboard-response","35","2.0.0","630664","pynjq7zkrwu","lamb","z","<div style=""font-size:30pt;"">Coral is alive.</div>","Physiology","T","F","Life","false","T","true",""
"","2035","html-keyboard-response","36","2.0.0","633201","pynjq7zkrwu","lamb","m","<div style=""font-size:30pt;"">Screwdrivers can die.</div>","Physiology","F","F","Death","true","F","true",""
"","5716","html-keyboard-response","37","2.0.0","639419","pynjq7zkrwu","lamb","z","<div style=""font-size:30pt;"">A baby can be a niece or a nephew.</div>","Physiology","T","T","Kinship","true","T","true",""
"","9660","html-keyboard-response","38","2.0.0","649582","pynjq7zkrwu","lamb","z","<div style=""font-size:30pt;"">People turn food into energy.</div>","Physiology","T","T","Metabolism","true","T","true",""
"","2679","html-keyboard-response","39","2.0.0","652763","pynjq7zkrwu","lamb","z","<div style=""font-size:30pt;"">Caterpillars can reproduce.</div>","Physiology","F","T","Reproduction","false","T","false",""
"","1048","html-keyboard-response","40","2.0.0","654313","pynjq7zkrwu","lamb","m","<div style=""font-size:30pt;"">Chairs can reproduce.</div>","Physiology","F","F","Reproduction","true","F","true",""
"","829","html-keyboard-response","41","2.0.0","655644","pynjq7zkrwu","lamb","z","<div style=""font-size:30pt;"">Tigers can reproduce.</div>","Physiology","T","T","Reproduction","true","T","true",""
"","21227","html-keyboard-response","42","2.0.0","677374","pynjq7zkrwu","lamb","m","<div style=""font-size:30pt;"">Plants turn food into energy.</div>","Physiology","F","T","Metabolism","false","F","true",""
"","4441","html-keyboard-response","43","2.0.0","682318","pynjq7zkrwu","lamb","m","<div style=""font-size:30pt;"">A baby can be a mother or a father.</div>","Physiology","F","F","Kinship","true","F","true",""
"","3059","html-keyboard-response","44","2.0.0","685879","pynjq7zkrwu","lamb","m","<div style=""font-size:30pt;"">A baby can be identical to an older sibling.</div>","Physiology","F","T","Kinship","false","F","true",""
"","1031","html-keyboard-response","45","2.0.0","687411","pynjq7zkrwu","lamb","z","<div style=""font-size:30pt;"">Mushrooms can die.</div>","Physiology","T","F","Death","false","T","true",""
"","1464","html-keyboard-response","46","2.0.0","689378","pynjq7zkrwu","lamb","t","<div style=""font-size:30pt;"">Press T if you are paying attention. Do not press z or m.</div>","Physiology","T3","T3","AttentionCheck","true","T3","true",""
"","10363","html-keyboard-response","47","2.0.0","700243","pynjq7zkrwu","lamb","a","<p>The next 20 statements will be about <b>Fractions</b>. Press any key to continue.</p>","","","","","","","",""
"","2367","html-keyboard-response","48","2.0.0","702611","pynjq7zkrwu","lamb","z","<div style=""font-size:30pt;"">8 divided by 1/2 is 4.</div>","Fractions","F","T","Division","false","T","false",""
"","2154","html-keyboard-response","49","2.0.0","705267","pynjq7zkrwu","lamb","z","<div style=""font-size:30pt;"">There are numbers between 1/3 and 1/2.</div>","Fractions","T","F","Infinite density","false","T","true",""
"","2044","html-keyboard-response","50","2.0.0","707813","pynjq7zkrwu","lamb","z","<div style=""font-size:30pt;"">1/13 is greater than 1/30.</div>","Fractions","T","F","Ordering","false","T","true",""
"","1816","html-keyboard-response","51","2.0.0","710132","pynjq7zkrwu","lamb","z","<div style=""font-size:30pt;"">1/10 plus 1/10 is 1/5.</div>","Fractions","T","F","Addition","false","T","true",""
"","1239","html-keyboard-response","52","2.0.0","711874","pynjq7zkrwu","lamb","t","<div style=""font-size:30pt;"">Press T if you are paying attention. Do not press z or m.</div>","Fractions","T3","T3","AttentionCheck","true","T3","true",""
"","1360","html-keyboard-response","53","2.0.0","713736","pynjq7zkrwu","lamb","m","<div style=""font-size:30pt;"">1/3 plus 1/3 is 1/3.</div>","Fractions","F","F","Addition","true","F","true",""
"","4766","html-keyboard-response","54","2.0.0","719005","pynjq7zkrwu","lamb","z","<div style=""font-size:30pt;"">4 divided by 2/1 is 2.</div>","Fractions","T","T","Division","true","T","true",""
"","1522","html-keyboard-response","55","2.0.0","721028","pynjq7zkrwu","lamb","z","<div style=""font-size:30pt;"">There are numbers between 1 and 3.</div>","Fractions","T","T","Infinite density","true","T","true",""
"","1485","html-keyboard-response","56","2.0.0","723015","pynjq7zkrwu","lamb","z","<div style=""font-size:30pt;"">1/3 plus 1/3 is 2/3.</div>","Fractions","T","T","Addition","true","T","true",""
"","2328","html-keyboard-response","57","2.0.0","725845","pynjq7zkrwu","lamb","m","<div style=""font-size:30pt;"">1/17 is greater than 16/17.</div>","Fractions","F","F","Ordering","true","F","true",""
"","2086","html-keyboard-response","58","2.0.0","728432","pynjq7zkrwu","lamb","m","<div style=""font-size:30pt;"">12/13 is greater than 1/13.</div>","Fractions","T","T","Ordering","true","F","false",""
"","2434","html-keyboard-response","59","2.0.0","731368","pynjq7zkrwu","lamb","z","<div style=""font-size:30pt;"">All integers are expressible as fractions.</div>","Fractions","T","F","Conversion","false","T","true",""
"","2908","html-keyboard-response","60","2.0.0","734778","pynjq7zkrwu","lamb","m","<div style=""font-size:30pt;"">4 divided by 1/2 is 8.</div>","Fractions","T","F","Division","false","F","false",""
"","2240","html-keyboard-response","61","2.0.0","737519","pynjq7zkrwu","lamb","z","<div style=""font-size:30pt;"">All fractions are expressible as decimals.</div>","Fractions","F","T","Conversion","false","T","false",""
"","5743","html-keyboard-response","62","2.0.0","743766","pynjq7zkrwu","lamb","m","<div style=""font-size:30pt;"">8 divided by 2/1 is 3.</div>","Fractions","F","F","Division","true","F","true",""
"","4861","html-keyboard-response","63","2.0.0","749130","pynjq7zkrwu","lamb","z","<div style=""font-size:30pt;"">All decimals are expressible as fractions.</div>","Fractions","T","T","Conversion","true","T","true",""
"","4049","html-keyboard-response","64","2.0.0","753680","pynjq7zkrwu","lamb","m","<div style=""font-size:30pt;"">1/17 is greater than 1/9.</div>","Fractions","F","T","Ordering","false","F","true",""
"","2560","html-keyboard-response","65","2.0.0","756743","pynjq7zkrwu","lamb","m","<div style=""font-size:30pt;"">2/3 plus 2/4 is 2/7.</div>","Fractions","F","T","Addition","false","F","true",""
"","1602","html-keyboard-response","66","2.0.0","758847","pynjq7zkrwu","lamb","z","<div style=""font-size:30pt;"">There are numbers between 1/10 and 10/100.</div>","Fractions","F","T","Infinite density","false","T","false",""
"","1585","html-keyboard-response","67","2.0.0","760933","pynjq7zkrwu","lamb","z","<div style=""font-size:30pt;"">All fractions are expressible as integers.</div>","Fractions","F","F","Conversion","true","T","false",""
"","3315","html-keyboard-response","68","2.0.0","764750","pynjq7zkrwu","lamb","m","<div style=""font-size:30pt;"">There are numbers between 10 and 10.</div>","Fractions","F","F","Infinite density","true","F","true",""
"","53233","html-keyboard-response","69","2.0.0","818485","pynjq7zkrwu","lamb","z","<p>The next 20 statements will be about <b>Genetics</b>. Press any key to continue.</p>","","","","","","","",""
"","2023","html-keyboard-response","70","2.0.0","820510","pynjq7zkrwu","lamb","m","<div style=""font-size:30pt;"">Genes that code for eye color can be found in hair.</div>","Genetics","F","F","Expression","true","F","true",""
"","7239","html-keyboard-response","71","2.0.0","828251","pynjq7zkrwu","lamb","m","<div style=""font-size:30pt;"">Skin cells have more chromosomes than egg cells.</div>","Genetics","T","F","Chromosome","false","F","false",""
"","2741","html-keyboard-response","72","2.0.0","831495","pynjq7zkrwu","lamb","z","<div style=""font-size:30pt;"">Two brown-eyed parents could have a brown-eyed baby.</div>","Genetics","T","T","Dominance","true","T","true",""
"","2402","html-keyboard-response","73","2.0.0","834400","pynjq7zkrwu","lamb","m","<div style=""font-size:30pt;"">Genes that code for eye color can be found in the liver.</div>","Genetics","T","F","Expression","false","F","false",""
"","4399","html-keyboard-response","74","2.0.0","839300","pynjq7zkrwu","lamb","m","<div style=""font-size:30pt;"">Sunscreen can change one's genome.</div>","Genetics","F","F","Mutation","true","F","true",""
"","1879","html-keyboard-response","75","2.0.0","841682","pynjq7zkrwu","lamb","m","<div style=""font-size:30pt;"">Intelligence is heritable.</div>","Genetics","T","F","Heritability","false","F","false",""
"","2848","html-keyboard-response","76","2.0.0","845031","pynjq7zkrwu","lamb","m","<div style=""font-size:30pt;"">Exercise can change one's genome.</div>","Genetics","F","T","Mutation","false","F","true",""
"","1881","html-keyboard-response","77","2.0.0","847414","pynjq7zkrwu","lamb","z","<div style=""font-size:30pt;"">Two brown-eyed parents could have a blue-eyed baby.</div>","Genetics","T","F","Dominance","false","T","true",""
"","1649","html-keyboard-response","78","2.0.0","849565","pynjq7zkrwu","lamb","m","<div style=""font-size:30pt;"">Pierced ears are heritable.</div>","Genetics","F","F","Heritability","true","F","true",""
"","6545","html-keyboard-response","79","2.0.0","856613","pynjq7zkrwu","lamb","m","<div style=""font-size:30pt;"">Men have more chromosomes than women.</div>","Genetics","F","F","Chromosome","true","F","true",""
"","2114","html-keyboard-response","80","2.0.0","859229","pynjq7zkrwu","lamb","z","<div style=""font-size:30pt;"">Humans have more chromosomes than mosquitoes.</div>","Genetics","T","T","Chromosome","true","T","true",""
"","3754","html-keyboard-response","81","2.0.0","863484","pynjq7zkrwu","lamb","z","<div style=""font-size:30pt;"">Two blue-eyed parents could have a brown-eyed baby.</div>","Genetics","F","F","Dominance","true","T","false",""
"","1963","html-keyboard-response","82","2.0.0","865950","pynjq7zkrwu","lamb","m","<div style=""font-size:30pt;"">Genes that code for eye color can be found in tears.</div>","Genetics","F","T","Expression","false","F","true",""
"","2299","html-keyboard-response","83","2.0.0","868750","pynjq7zkrwu","lamb","m","<div style=""font-size:30pt;"">Adults have more chromosomes than children.</div>","Genetics","F","T","Chromosome","false","F","true",""
"","1614","html-keyboard-response","84","2.0.0","870866","pynjq7zkrwu","lamb","m","<div style=""font-size:30pt;"">Viruses can change one's genome.</div>","Genetics","T","F","Mutation","false","F","false",""
"","1517","html-keyboard-response","85","2.0.0","872886","pynjq7zkrwu","lamb","z","<div style=""font-size:30pt;"">Hair color is heritable.</div>","Genetics","T","T","Heritability","true","T","true",""
"","7943","html-keyboard-response","86","2.0.0","881331","pynjq7zkrwu","lamb","z","<div style=""font-size:30pt;"">Genes that code for eye color can be found in the eye.</div>","Genetics","T","T","Expression","true","T","true",""
"","3333","html-keyboard-response","87","2.0.0","885168","pynjq7zkrwu","lamb","z","<div style=""font-size:30pt;"">Radiation can change one's genome.</div>","Genetics","T","T","Mutation","true","T","true",""
"","1307","html-keyboard-response","88","2.0.0","886977","pynjq7zkrwu","lamb","t","<div style=""font-size:30pt;"">Press T if you are paying attention. Do not press z or m.</div>","Genetics","T3","T3","AttentionCheck","true","T3","true",""
"","4446","html-keyboard-response","89","2.0.0","891924","pynjq7zkrwu","lamb","m","<div style=""font-size:30pt;"">Immunity to chickenpox is heritable.</div>","Genetics","F","T","Heritability","false","F","true",""
"","5771","html-keyboard-response","90","2.0.0","898197","pynjq7zkrwu","lamb","m","<div style=""font-size:30pt;"">A blue-eyed baby must have two blue-eyed parents.</div>","Genetics","F","T","Dominance","false","F","true",""
"","2147","html-keyboard-response","91","2.0.0","900847","pynjq7zkrwu","lamb","m","<p>The next 20 statements will be about <b>Thermodynamics</b>. Press any key to continue.</p>","","","","","","","",""
"","2794","html-keyboard-response","92","2.0.0","903642","pynjq7zkrwu","lamb","z","<div style=""font-size:30pt;"">Heat increases an object's size.</div>","Thermodynamics","T","F","Thermal expansion","false","T","true",""
"","3987","html-keyboard-response","93","2.0.0","908131","pynjq7zkrwu","lamb","m","<div style=""font-size:30pt;"">Two cups of ice have a lower temperature than one.</div>","Thermodynamics","F","T","Temperature","false","F","true",""
"","1926","html-keyboard-response","94","2.0.0","910559","pynjq7zkrwu","lamb","z","<div style=""font-size:30pt;"">Ice has a lower temperature than water.</div>","Thermodynamics","T","T","Temperature","true","T","true",""
"","1523","html-keyboard-response","95","2.0.0","912585","pynjq7zkrwu","lamb","t","<div style=""font-size:30pt;"">Press T if you are paying attention. Do not press z or m.</div>","Thermodynamics","T3","T3","AttentionCheck","true","T3","true",""
"","1693","html-keyboard-response","96","2.0.0","914779","pynjq7zkrwu","lamb","z","<div style=""font-size:30pt;"">Pressure produces heat.</div>","Thermodynamics","T","F","Heat source","false","T","true",""
"","2793","html-keyboard-response","97","2.0.0","918074","pynjq7zkrwu","lamb","z","<div style=""font-size:30pt;"">Cold objects transfer heat to even colder objects.</div>","Thermodynamics","T","F","Heat transfer","false","T","true",""
"","867","html-keyboard-response","98","2.0.0","919443","pynjq7zkrwu","lamb","z","<div style=""font-size:30pt;"">The sun has heat.</div>","Thermodynamics","T","T","Heat","true","T","true",""
"","1037","html-keyboard-response","99","2.0.0","920982","pynjq7zkrwu","lamb","m","<div style=""font-size:30pt;"">Rain produces heat.</div>","Thermodynamics","F","F","Heat source","true","F","true",""
"","9653","html-keyboard-response","100","2.0.0","931136","pynjq7zkrwu","lamb","z","<div style=""font-size:30pt;"">Heat increases an object's temperature.</div>","Thermodynamics","T","T","Thermal expansion","true","T","true",""
"","5630","html-keyboard-response","101","2.0.0","937268","pynjq7zkrwu","lamb","m","<div style=""font-size:30pt;"">Ice has heat.</div>","Thermodynamics","T","F","Heat","false","F","false",""
"","2108","html-keyboard-response","102","2.0.0","939879","pynjq7zkrwu","lamb","z","<div style=""font-size:30pt;"">Ovens produce heat.</div>","Thermodynamics","T","T","Heat source","true","T","true",""
"","3282","html-keyboard-response","103","2.0.0","943661","pynjq7zkrwu","lamb","z","<div style=""font-size:30pt;"">Water transfers heat to ice.</div>","Thermodynamics","T","T","Heat transfer","true","T","true",""
"","2619","html-keyboard-response","104","2.0.0","946782","pynjq7zkrwu","lamb","m","<div style=""font-size:30pt;"">Steam has a lower temperature than ice.</div>","Thermodynamics","F","F","Temperature","true","F","true",""
"","1898","html-keyboard-response","105","2.0.0","949182","pynjq7zkrwu","lamb","m","<div style=""font-size:30pt;"">Heat increases an object's weight.</div>","Thermodynamics","F","T","Thermal expansion","false","F","true",""
"","1246","html-keyboard-response","106","2.0.0","950930","pynjq7zkrwu","lamb","m","<div style=""font-size:30pt;"">Gravity has heat.</div>","Thermodynamics","F","F","Heat","true","F","true",""
"","1305","html-keyboard-response","107","2.0.0","952738","pynjq7zkrwu","lamb","z","<div style=""font-size:30pt;"">Atoms have heat.</div>","Thermodynamics","F","T","Heat","false","T","false",""
"","1688","html-keyboard-response","108","2.0.0","954928","pynjq7zkrwu","lamb","z","<div style=""font-size:30pt;"">Coats produce heat.</div>","Thermodynamics","F","T","Heat source","false","T","false",""
"","5704","html-keyboard-response","109","2.0.0","961134","pynjq7zkrwu","lamb","m","<div style=""font-size:30pt;"">Water transfers heat to steam.</div>","Thermodynamics","F","T","Heat transfer","false","F","true",""
"","1790","html-keyboard-response","110","2.0.0","963426","pynjq7zkrwu","lamb","m","<div style=""font-size:30pt;"">Boiling water has a lower temperature than steam.</div>","Thermodynamics","T","F","Temperature","false","F","false",""
"","5057","html-keyboard-response","111","2.0.0","968985","pynjq7zkrwu","lamb","m","<div style=""font-size:30pt;"">Cold objects transfer heat to warm objects.</div>","Thermodynamics","F","F","Heat transfer","true","F","true",""
"","2441","html-keyboard-response","112","2.0.0","971927","pynjq7zkrwu","lamb","m","<div style=""font-size:30pt;"">Heat increases an object's color.</div>","Thermodynamics","F","F","Thermal expansion","true","F","true",""
"","1368","html-keyboard-response","113","2.0.0","973796","pynjq7zkrwu","lamb","m","<p>The next 20 statements will be about <b>Mechanics</b>. Press any key to continue.</p>","","","","","","","",""
"","6116","html-keyboard-response","114","2.0.0","979913","pynjq7zkrwu","lamb","z","<div style=""font-size:30pt;"">Forces can be strong or weak.</div>","Mechanics","T","T","Force","true","T","true",""
"","1251","html-keyboard-response","115","2.0.0","981667","pynjq7zkrwu","lamb","z","<div style=""font-size:30pt;"">Constant force can yield constant rest.</div>","Mechanics","T","F","Acceleration","false","T","true",""
"","1484","html-keyboard-response","116","2.0.0","983653","pynjq7zkrwu","lamb","z","<div style=""font-size:30pt;"">Forces can be balanced or unbalanced.</div>","Mechanics","T","F","Force","false","T","true",""
"","2142","html-keyboard-response","117","2.0.0","986297","pynjq7zkrwu","lamb","z","<div style=""font-size:30pt;"">Constant speed requires constant acceleration.</div>","Mechanics","F","F","Acceleration","true","T","false",""
"","5867","html-keyboard-response","118","2.0.0","992666","pynjq7zkrwu","lamb","z","<div style=""font-size:30pt;"">A moving bullet loses height.</div>","Mechanics","T","F","Velocity","false","T","true",""
"","5285","html-keyboard-response","119","2.0.0","998458","pynjq7zkrwu","lamb","z","<div style=""font-size:30pt;"">Pointy objects fall through air faster than flat objects.</div>","Mechanics","T","F","Gravity","false","T","true",""
"","4540","html-keyboard-response","120","2.0.0","1003502","pynjq7zkrwu","lamb","m","<div style=""font-size:30pt;"">Bright objects fall through air faster than dark objects.</div>","Mechanics","F","F","Gravity","true","F","true",""
"","2597","html-keyboard-response","121","2.0.0","1006601","pynjq7zkrwu","lamb","z","<div style=""font-size:30pt;"">Heavy balls fall through air faster than light balls.</div>","Mechanics","F","T","Gravity","false","T","false",""
"","3296","html-keyboard-response","122","2.0.0","1010399","pynjq7zkrwu","lamb","m","<div style=""font-size:30pt;"">A moving bullet loses weight.</div>","Mechanics","F","F","Velocity","true","F","true",""
"","1669","html-keyboard-response","123","2.0.0","1012570","pynjq7zkrwu","lamb","m","<div style=""font-size:30pt;"">Forces can be male or female.</div>","Mechanics","F","F","Force","true","F","true",""
"","3266","html-keyboard-response","124","2.0.0","1016338","pynjq7zkrwu","lamb","z","<div style=""font-size:30pt;"">A moving bullet loses speed.</div>","Mechanics","T","T","Velocity","true","T","true",""
"","1542","html-keyboard-response","125","2.0.0","1018382","pynjq7zkrwu","lamb","z","<div style=""font-size:30pt;"">Forces can be transferred from one object to another.</div>","Mechanics","F","T","Momentum","false","T","false",""
"","1547","html-keyboard-response","126","2.0.0","1020430","pynjq7zkrwu","lamb","z","<div style=""font-size:30pt;"">Forces can be straight or curved.</div>","Mechanics","F","T","Force","false","T","false",""
"","1967","html-keyboard-response","127","2.0.0","1022899","pynjq7zkrwu","lamb","z","<div style=""font-size:30pt;"">Energy can be transferred from one object to another.</div>","Mechanics","T","F","Momentum","false","T","true",""
"","1297","html-keyboard-response","128","2.0.0","1024698","pynjq7zkrwu","lamb","m","<div style=""font-size:30pt;"">Color can be transferred from one object to another.</div>","Mechanics","F","F","Momentum","true","F","true",""
"","2288","html-keyboard-response","129","2.0.0","1027488","pynjq7zkrwu","lamb","z","<div style=""font-size:30pt;"">Constant motion requires constant force.</div>","Mechanics","F","T","Acceleration","false","T","false",""
"","1201","html-keyboard-response","130","2.0.0","1029193","pynjq7zkrwu","lamb","t","<div style=""font-size:30pt;"">Press T if you are paying attention. Do not press z or m.</div>","Mechanics","T3","T3","AttentionCheck","true","T3","true",""
"","2113","html-keyboard-response","131","2.0.0","1031810","pynjq7zkrwu","lamb","z","<div style=""font-size:30pt;"">Anvils fall through air faster than feathers.</div>","Mechanics","T","T","Gravity","true","T","true",""
"","7902","html-keyboard-response","132","2.0.0","1040214","pynjq7zkrwu","lamb","z","<div style=""font-size:30pt;"">A moving bullet loses force.</div>","Mechanics","F","T","Velocity","false","T","false",""
"","3837","html-keyboard-response","133","2.0.0","1044555","pynjq7zkrwu","lamb","z","<div style=""font-size:30pt;"">Constant acceleration requires constant force.</div>","Mechanics","T","T","Acceleration","true","T","true",""
"","5940","html-keyboard-response","134","2.0.0","1050997","pynjq7zkrwu","lamb","z","<div style=""font-size:30pt;"">Momentum can be transferred from one object to another.</div>","Mechanics","T","T","Momentum","true","T","true",""
"","1535","html-keyboard-response","135","2.0.0","1053036","pynjq7zkrwu","lamb"," ","<p>The next 20 statements will be about <b>Evolution</b>. Press any key to continue.</p>","","","","","","","",""
"","5895","html-keyboard-response","136","2.0.0","1058932","pynjq7zkrwu","lamb","m","<div style=""font-size:30pt;"">Evolution requires climate stability.</div>","Evolution","F","F","Variation","true","F","true",""
"","2635","html-keyboard-response","137","2.0.0","1062070","pynjq7zkrwu","lamb","z","<div style=""font-size:30pt;"">Evolution requires long periods of time.</div>","Evolution","F","T","Variation","false","T","false",""
"","10735","html-keyboard-response","138","2.0.0","1073307","pynjq7zkrwu","lamb","m","<div style=""font-size:30pt;"">Most organisms have plenty to eat.</div>","Evolution","F","T","Selection","false","F","true",""
"","2723","html-keyboard-response","139","2.0.0","1076533","pynjq7zkrwu","lamb","m","<div style=""font-size:30pt;"">Humans are more closely related to apes than monkeys.</div>","Evolution","T","T","Common ancestry","true","F","false",""
"","7182","html-keyboard-response","140","2.0.0","1084217","pynjq7zkrwu","lamb","m","<div style=""font-size:30pt;"">Humans are descended from plants.</div>","Evolution","F","F","Phylogeny","true","F","true",""
"","6567","html-keyboard-response","141","2.0.0","1091288","pynjq7zkrwu","lamb","m","<div style=""font-size:30pt;"">Most organisms live in temperate climates.</div>","Evolution","F","F","Selection","true","F","true",""
"","4295","html-keyboard-response","142","2.0.0","1096086","pynjq7zkrwu","lamb","m","<div style=""font-size:30pt;"">Most organisms are adapted to their environment.</div>","Evolution","T","T","Selection","true","F","false",""
"","1224","html-keyboard-response","143","2.0.0","1097812","pynjq7zkrwu","lamb","t","<div style=""font-size:30pt;"">Press T if you are paying attention. Do not press z or m.</div>","Evolution","T3","T3","AttentionCheck","true","T3","true",""
"","1702","html-keyboard-response","144","2.0.0","1100016","pynjq7zkrwu","lamb","m","<div style=""font-size:30pt;"">Most organisms die before leaving offspring.</div>","Evolution","T","F","Selection","false","F","false",""
"","2712","html-keyboard-response","145","2.0.0","1103230","pynjq7zkrwu","lamb","z","<div style=""font-size:30pt;"">Evolution requires within-species variation.</div>","Evolution","T","F","Variation","false","T","true",""
"","5392","html-keyboard-response","146","2.0.0","1109123","pynjq7zkrwu","lamb","z","<div style=""font-size:30pt;"">Humans are descended from sea-dwelling creatures.</div>","Evolution","T","F","Phylogeny","false","T","true",""
"","1387","html-keyboard-response","147","2.0.0","1111012","pynjq7zkrwu","lamb","m","<div style=""font-size:30pt;"">Humans are descended from tree-dwelling creatures.</div>","Evolution","T","T","Phylogeny","true","F","false",""
"","1914","html-keyboard-response","148","2.0.0","1113428","pynjq7zkrwu","lamb","m","<div style=""font-size:30pt;"">Whales are more closely related to plants than fish.</div>","Evolution","F","F","Common ancestry","true","F","true",""
"","2193","html-keyboard-response","149","2.0.0","1116122","pynjq7zkrwu","lamb","m","<div style=""font-size:30pt;"">Evolution requires differential survival.</div>","Evolution","T","T","Variation","true","F","false",""
"","6925","html-keyboard-response","150","2.0.0","1123550","pynjq7zkrwu","lamb","z","<div style=""font-size:30pt;"">Apes are more closely related to monkeys than humans.</div>","Evolution","F","T","Common ancestry","false","T","false",""
"","3486","html-keyboard-response","151","2.0.0","1127537","pynjq7zkrwu","lamb","z","<div style=""font-size:30pt;"">Humans are descended from chimpanzees.</div>","Evolution","F","T","Phylogeny","false","T","false",""
"","1525","html-keyboard-response","152","2.0.0","1129564","pynjq7zkrwu","lamb","m","<div style=""font-size:30pt;"">Inanimate objects evolve.</div>","Evolution","F","F","Adaptation","true","F","true",""
"","994","html-keyboard-response","153","2.0.0","1131059","pynjq7zkrwu","lamb","z","<div style=""font-size:30pt;"">Biological species evolve.</div>","Evolution","T","T","Adaptation","true","T","true",""
"","977","html-keyboard-response","154","2.0.0","1132541","pynjq7zkrwu","lamb","z","<div style=""font-size:30pt;"">Individual organisms evolve.</div>","Evolution","F","T","Adaptation","false","T","false",""
"","3471","html-keyboard-response","155","2.0.0","1136515","pynjq7zkrwu","lamb","z","<div style=""font-size:30pt;"">Computer viruses evolve.</div>","Evolution","T","F","Adaptation","false","T","true",""
"","10117","html-keyboard-response","156","2.0.0","1147135","pynjq7zkrwu","lamb","m","<div style=""font-size:30pt;"">Whales are more closely related to humans than fish.</div>","Evolution","T","F","Common ancestry","false","F","false",""
"","5340","html-keyboard-response","157","2.0.0","1152976","pynjq7zkrwu","lamb","m","
      <p>Thank you for completing this portion of the 
      experiment. We now have a few  questions for you.</p>
      <p>Press any key to proceed, and click submit once you are 
      done with the questions. Thanks! </p>
      ","","","","","","","",""
"","3367","survey-multi-choice","158","null","1156347","pynjq7zkrwu","lamb","{""grade"":""4th Year"",""gender"":""Male""}","","","","","","","","","[0,1]"
"","31102","survey","159","4.0.0","1187504","pynjq7zkrwu","lamb","{""age"":21,""major"":""COGS-ML"",""experiment_topic"":""Reaction time, general knowledge assesment"",""technical_difficulties"":""Accidentally pressed on a few""}","","","","","","","","",""
